timestamp,accelX,accelY,accelZ,gyroX,gyroY,gyroZ
264639,4.93,-3.15,10.83,0.36,2.94,0.28
264674,3.45,-0.70,10.33,0.35,2.97,0.76
264709,2.58,-3.84,11.19,0.35,2.97,1.01
264744,2.10,-2.77,12.56,0.35,2.96,1.08
264779,0.57,-4.88,11.73,0.31,2.93,1.16
264815,-0.25,-9.36,13.06,0.42,3.28,1.14
264849,0.20,6.63,10.64,0.37,3.56,0.89
264884,-4.31,-8.72,15.93,0.27,3.65,1.05
264919,-3.57,-4.92,12.34,0.00,3.58,1.30
264954,-4.55,-4.15,12.02,-0.60,3.50,1.64
264989,-7.75,-8.35,14.26,-1.24,3.53,1.91
265024,-6.49,-0.06,13.82,-1.36,3.72,1.71
265059,-6.46,4.96,14.27,-0.76,4.07,1.33
265094,-10.05,1.13,12.81,0.16,4.39,1.10
265129,-9.59,-0.85,9.67,0.67,4.54,1.04
265164,-8.36,-3.06,6.78,0.82,4.61,1.13
265199,-7.92,-4.18,4.98,0.57,4.64,1.09
265233,-10.41,-1.63,5.57,0.21,4.79,0.90
265268,-11.45,1.78,5.80,0.08,5.07,0.75
265303,-9.50,-0.43,5.06,0.06,5.34,0.61
265338,-10.74,0.72,4.48,0.13,5.65,0.66
265373,-9.57,-0.28,2.17,0.25,6.02,0.94
265408,-3.11,-1.28,4.06,0.33,6.17,1.17
265443,-0.53,-3.70,-1.49,0.32,6.10,1.54
265478,4.69,-1.94,0.22,0.15,6.10,1.61
265513,6.47,-4.06,0.85,0.10,6.01,1.48
265548,4.82,-3.90,1.17,-0.11,6.04,1.52
265583,5.05,-4.20,2.36,-0.23,6.21,1.44
265618,7.44,-5.45,5.18,-0.46,6.39,1.36
265653,9.16,-4.67,7.37,-0.74,6.51,1.21
265688,10.87,-4.51,8.95,-0.81,6.72,0.99
265722,9.42,-2.43,13.34,-0.76,6.91,0.77
265757,10.46,0.56,16.65,-0.30,6.96,0.65
265792,11.27,-0.91,19.17,0.16,7.07,0.73
265827,7.49,-1.14,20.42,0.45,7.17,0.92
265862,6.79,-2.34,22.29,0.58,7.29,1.06
265897,3.82,-3.55,25.22,0.67,7.49,1.09
265932,2.28,-3.18,25.86,0.79,7.70,1.10
265967,-1.62,-3.58,26.44,0.89,7.81,1.13
266002,-3.74,-1.29,27.44,1.08,7.97,1.06
266036,-4.77,-3.73,26.28,1.29,8.15,1.14
266071,-8.09,-5.02,25.70,1.30,8.37,1.36
266106,-8.16,-4.06,22.45,1.23,8.58,1.51
266141,-5.69,-3.72,18.28,0.92,8.66,1.45
266176,-4.41,-0.26,14.49,0.78,8.64,1.35
266211,-2.76,0.15,11.91,0.74,8.49,1.25
266246,0.34,-0.01,9.10,0.86,8.40,1.20
266281,0.92,-1.74,9.20,0.92,8.35,1.33
266315,2.66,0.85,10.77,1.05,8.50,1.23
266350,4.18,3.03,12.14,1.13,8.60,1.09
266385,8.52,0.75,14.00,1.21,8.69,1.17
266420,9.56,-3.47,15.97,1.05,8.70,1.32
266455,11.23,-5.46,18.05,0.79,8.68,1.38
266495,11.96,-3.39,21.26,0.49,8.73,1.29
266530,9.68,-4.19,23.85,0.55,8.73,1.21
266565,9.32,-3.58,27.47,0.70,8.73,1.20
266600,7.76,-4.01,30.75,0.86,8.73,1.33
266635,4.94,-4.68,32.87,0.96,8.73,1.51
266670,1.32,-3.88,34.17,0.96,8.73,1.59
266705,-2.21,-5.72,33.19,0.97,8.73,1.70
266740,-5.90,-4.47,33.10,0.96,8.73,1.78
266775,-5.62,-2.25,32.30,1.26,8.73,1.81
266810,-4.92,-3.44,25.75,1.52,8.73,1.94
266845,-5.13,-6.48,20.37,1.64,8.73,2.19
266880,-5.82,-8.80,18.60,1.45,8.73,2.44
266915,-8.49,-8.24,17.31,1.13,8.73,2.47
266949,-5.87,-4.84,17.39,0.93,8.73,2.48
266984,1.02,-4.53,18.07,0.82,8.73,2.50
267019,6.61,-7.76,19.22,0.61,8.73,2.43
267054,11.30,-6.72,21.90,0.49,8.73,2.29
267089,12.08,-6.78,24.70,0.43,8.73,2.08
267124,12.21,-5.30,28.85,0.43,8.73,1.94
267159,12.29,-5.29,32.93,0.52,8.73,1.87
267194,11.44,-5.22,36.86,0.59,8.73,1.77
267229,7.23,-5.03,39.38,0.69,8.73,1.72
267264,4.36,-5.47,41.79,0.89,8.73,1.61
267299,0.59,-5.45,41.08,1.03,8.73,1.56
267334,-2.67,-5.36,36.98,1.21,8.73,1.56
267369,-5.58,-2.56,35.05,1.34,8.73,1.63
267404,-6.62,-3.37,30.56,1.39,8.73,1.69
267439,-4.33,-4.98,27.33,1.23,8.73,1.73
267474,-5.72,-0.46,24.92,0.98,8.73,1.59
267509,-5.25,0.49,23.11,0.93,8.73,1.28
267544,1.91,1.62,22.40,1.08,8.73,1.25
267579,6.68,0.25,22.18,1.22,8.73,1.39
267614,8.43,-4.43,21.25,1.03,8.73,1.77
267649,9.91,-7.95,23.51,0.86,8.73,2.00
267685,11.30,-6.86,26.99,0.72,8.73,1.95
267719,13.32,-5.20,32.45,0.63,8.73,1.88
267754,12.49,-6.20,37.24,0.64,8.73,1.76
267789,9.18,-5.60,39.66,0.74,8.73,1.72
267824,7.58,-6.66,40.31,0.85,8.73,1.80
267859,3.70,-6.08,39.92,1.02,8.73,1.85
267894,-0.36,-6.52,39.57,1.03,8.73,1.82
267929,-3.89,-4.55,38.53,1.19,8.73,1.78
267964,-4.76,-3.35,34.66,1.35,8.73,1.81
267999,-4.77,-6.39,28.69,1.38,8.73,1.93
268034,-6.21,-7.33,25.17,1.28,8.73,2.02
268069,-3.62,-3.65,23.73,1.26,8.73,2.15
268104,-2.85,-6.08,21.57,1.19,8.73,2.25
268139,-0.24,-6.66,20.97,1.07,8.73,2.43
268174,4.12,-7.28,21.43,0.99,8.73,2.41
268209,8.91,-5.69,23.48,0.94,8.73,2.30
268244,11.82,-4.36,27.68,1.05,8.73,2.21
268279,13.70,-3.73,31.65,1.16,8.73,2.18
268315,13.26,-7.62,34.41,1.23,8.73,2.31
268349,10.59,-6.69,37.70,1.17,8.73,2.38
268385,9.04,-8.05,38.82,1.04,8.73,2.26
268419,5.54,-8.15,39.49,0.94,8.73,2.16
268454,1.99,-5.36,39.23,0.98,8.73,1.89
268489,-1.45,-4.13,38.16,1.09,8.73,1.81
268529,-5.20,-3.65,36.48,1.23,8.73,1.88
268564,-5.09,-7.80,31.48,1.17,8.73,1.99
268599,-6.57,-5.44,28.76,0.97,8.73,2.05
268634,-5.43,-3.56,25.93,0.99,8.73,2.00
268669,-2.83,-3.48,23.79,0.91,8.73,1.95
268704,1.00,-2.35,22.90,0.94,8.73,1.90
268739,4.07,-3.58,22.31,1.01,8.73,1.89
268774,6.69,-5.32,22.61,1.07,8.73,1.96
268809,11.91,-5.41,26.10,0.99,8.73,2.02
268844,15.31,-4.68,28.77,1.04,8.73,1.99
268879,14.45,-6.90,31.59,0.94,8.73,1.97
268914,12.41,-7.59,33.98,1.04,8.73,1.96
268949,10.01,-5.46,36.09,0.90,8.73,1.86
268984,7.25,-6.89,39.07,0.93,8.73,1.82
269019,3.77,-7.71,41.33,1.03,8.73,1.74
269054,1.62,-4.54,40.00,1.14,8.73,1.70
269089,-3.35,-7.61,38.16,1.25,8.73,1.76
269124,-6.50,-5.67,36.75,1.27,8.73,1.89
269159,-6.20,-7.47,32.55,1.17,8.73,2.00
269194,-6.95,-4.72,29.11,1.04,8.73,2.02
269229,-5.50,-4.06,25.89,0.96,8.73,2.01
269264,-0.91,-4.42,23.39,0.98,8.73,2.08
269299,2.73,-6.03,22.17,0.90,8.73,2.18
269334,7.19,-7.30,21.13,0.81,8.73,2.23
269370,9.35,-6.62,22.64,0.56,8.73,2.26
269404,10.41,-7.14,25.46,0.46,8.73,2.15
269439,12.49,-4.73,28.85,0.56,8.73,1.96
269474,13.19,-3.85,33.01,0.72,8.73,1.86
269509,12.13,-4.65,37.14,0.82,8.73,1.86
269544,9.24,-6.61,38.84,0.92,8.73,1.87
269579,5.61,-8.09,38.99,0.95,8.73,1.89
269614,2.42,-5.37,37.57,1.06,8.73,1.92
269649,-1.36,-6.27,37.88,1.09,8.73,1.86
269684,-2.65,-3.84,35.22,1.18,8.73,1.91
269719,-6.23,-5.17,32.71,1.41,8.73,1.97
269754,-7.94,-5.10,29.84,1.49,8.73,2.16
269789,-6.58,-8.59,25.94,1.49,8.73,2.39
269824,-5.01,-7.35,22.38,1.32,8.73,2.55
269859,0.35,-7.81,19.81,1.10,8.73,2.61
269894,3.60,-8.04,20.61,0.90,8.73,2.55
269929,8.89,-6.17,20.52,0.81,8.73,2.41
269964,12.40,-4.71,22.67,0.75,8.73,2.28
269999,13.04,-3.52,25.54,0.81,8.73,2.18
270034,12.12,-4.13,27.33,0.90,8.73,2.08
270069,12.43,-5.14,29.68,0.94,8.73,2.12
270104,11.40,-5.09,33.28,0.92,8.73,2.13
270139,8.97,-7.85,36.57,0.83,8.73,1.97
270174,5.63,-6.68,38.12,0.80,8.73,1.74
270209,2.33,-5.00,38.76,1.03,8.73,1.53
270244,-1.28,-5.27,37.51,1.33,8.73,1.43
270279,-3.12,-4.52,35.67,1.55,8.73,1.51
270315,-5.14,-7.91,31.34,1.65,8.73,1.74
270349,-6.55,-6.53,28.50,1.51,8.73,1.92
270385,-5.82,-4.87,24.47,1.41,8.73,2.02
270419,-1.64,-4.94,21.27,1.33,8.73,2.10
270454,1.21,-4.67,18.64,1.18,8.73,2.05
270489,1.29,-3.37,17.62,1.11,8.73,2.03
270524,5.22,-6.32,17.55,1.06,8.73,2.06
270564,9.13,-7.36,19.32,0.84,8.73,2.14
270599,11.04,-6.97,22.14,0.56,8.73,2.09
270634,12.16,-6.49,24.47,0.38,8.73,2.00
270669,11.59,-4.26,29.15,0.36,8.73,1.83
270704,11.44,-5.63,32.81,0.51,8.73,1.80
270739,9.27,-3.57,36.29,0.58,8.73,1.76
270774,5.79,-6.56,37.41,0.61,8.73,1.88
270809,2.43,-6.40,37.69,0.66,8.73,1.86
270845,-0.26,-5.05,37.96,0.56,8.73,1.81
270879,-4.61,-3.81,35.79,0.69,8.73,1.70
270914,-4.83,-2.73,32.86,0.77,8.73,1.63
270949,-6.17,-2.40,28.82,0.93,8.73,1.56
270984,-6.11,-2.21,24.99,0.99,8.73,1.60
271019,-4.06,0.29,22.09,1.18,8.73,1.57
271054,-1.87,-2.93,18.38,1.19,8.73,1.50
271089,3.31,0.53,17.34,1.28,8.73,1.34
271124,5.02,1.06,16.84,1.48,8.73,1.37
271159,6.50,1.03,18.83,1.67,8.73,1.48
271194,8.91,-3.33,19.42,1.81,8.73,1.70
271229,11.47,-5.43,21.10,1.76,8.73,1.97
271264,12.36,-7.22,25.63,1.69,8.73,2.20
271299,11.64,-7.63,29.08,1.56,8.73,2.40
271335,10.22,-10.25,32.11,1.42,8.73,2.61
271369,8.25,-12.03,35.39,1.23,8.73,2.75
271404,5.66,-10.09,37.88,0.93,8.73,2.66
271439,0.79,-9.15,38.24,0.73,8.73,2.44
271474,-1.40,-7.64,36.89,0.75,8.73,2.21
271509,-5.26,-8.00,35.43,0.63,8.73,2.11
271544,-6.07,-6.36,32.24,0.54,8.73,2.03
271579,-6.26,-4.96,28.56,0.48,8.73,1.81
271614,-5.84,-0.57,25.78,0.47,8.73,1.59
271649,-5.02,-0.85,22.83,0.65,8.73,1.45
271684,0.05,-0.17,21.49,0.86,8.73,1.30
271719,4.34,1.53,22.41,1.11,8.73,1.20
271754,7.17,2.05,21.67,1.38,8.73,1.22
271789,10.56,-1.12,23.40,1.79,8.73,1.35
271824,11.39,-4.56,25.95,1.99,8.73,1.66
271859,12.08,-7.51,29.01,1.94,8.73,1.98
271894,12.81,-8.90,33.62,1.70,8.73,2.22
271930,12.09,-10.18,37.98,1.54,8.73,2.38
271964,6.52,-9.59,40.31,1.35,8.73,2.42
271999,3.99,-11.14,40.96,1.06,8.73,2.36
272034,0.47,-11.51,41.02,1.04,8.73,2.29
272069,-2.94,-6.35,38.34,1.05,8.73,2.13
272104,-4.43,-9.31,34.22,1.05,8.73,2.10
272139,-3.93,-6.75,29.65,0.91,8.73,1.97
272174,-5.03,-5.28,25.34,0.71,8.73,1.78
272209,-5.31,-3.16,23.11,0.60,8.73,1.48
272244,-3.01,0.53,22.58,0.71,8.73,1.19
272279,-1.86,1.97,20.37,0.98,8.73,1.02
272315,5.06,2.96,20.20,1.28,8.73,1.08
272349,8.14,0.16,22.41,1.52,8.73,1.32
272384,11.87,-5.13,24.54,1.59,8.73,1.62
272419,13.16,-8.77,27.73,1.63,8.73,1.82
272454,13.78,-6.65,31.79,1.55,8.73,1.98
272489,11.55,-10.50,34.00,1.41,8.73,2.15
272524,9.79,-10.90,36.58,1.31,8.73,2.32
272559,6.77,-8.88,38.58,1.15,8.73,2.44
272599,1.98,-9.94,39.73,0.87,8.73,2.44
272635,-1.35,-8.52,38.61,0.79,8.73,2.35
272669,-4.14,-8.79,35.08,0.74,8.73,2.20
272704,-5.44,-6.48,31.21,0.81,8.73,2.06
272739,-4.63,-7.16,26.72,0.71,8.73,1.95
272774,-5.31,-4.90,24.45,0.62,8.73,1.70
272809,-5.36,-1.10,22.60,0.58,8.73,1.47
272845,-0.96,-0.23,21.01,0.76,8.73,1.34
272879,2.28,-3.33,19.28,0.99,8.73,1.31
272914,7.73,-2.19,18.79,1.15,8.73,1.42
272950,9.90,-3.83,19.94,1.21,8.73,1.62
272984,11.18,-3.87,22.85,1.35,8.73,1.75
273019,12.55,-5.00,24.73,1.42,8.73,1.89
273054,12.07,-6.05,29.71,1.65,8.73,2.17
273089,11.03,-10.25,33.66,1.53,8.73,2.58
273124,8.74,-12.22,36.05,1.30,8.73,2.95
273159,4.53,-14.00,37.33,0.93,8.73,3.16
273194,1.36,-12.50,38.90,0.41,8.73,3.17
273229,-1.18,-9.01,40.05,0.12,8.73,2.87
273264,-5.04,-8.71,38.88,-0.13,8.73,2.52
273299,-8.16,-6.80,36.66,-0.29,8.73,2.19
273335,-6.70,-2.55,33.71,-0.39,8.73,1.72
273369,-7.92,-1.92,31.48,-0.17,8.73,1.28
273404,-6.23,2.37,28.30,0.18,8.73,0.97
273439,1.22,2.26,25.27,0.66,8.73,1.01
273474,7.89,-2.92,24.63,0.92,8.73,1.30
273509,12.62,-4.43,26.82,0.97,8.73,1.56
273544,13.33,-6.05,28.69,0.89,8.73,1.68
273579,14.25,-7.88,29.56,0.89,8.73,1.72
273614,12.72,-5.79,32.89,1.15,8.73,1.78
273649,10.91,-9.64,35.30,1.27,8.73,2.02
273684,7.91,-11.29,36.63,1.29,8.73,2.35
273719,3.99,-13.57,37.72,1.07,8.73,2.60
273754,1.31,-12.91,37.89,0.70,8.73,2.77
273789,-1.28,-8.92,38.26,0.32,8.73,2.71
273825,-5.39,-9.73,37.27,-0.02,8.73,2.51
273859,-6.58,-6.76,34.56,-0.30,8.73,2.25
273894,-4.91,-1.97,30.95,-0.23,8.73,1.79
273929,-7.35,2.13,29.30,-0.02,8.73,1.43
273964,-5.40,1.77,25.31,0.41,8.73,1.34
273999,-0.29,1.39,24.28,0.76,8.73,1.36
274034,5.98,-6.14,22.83,0.92,8.73,1.49
274069,9.29,-3.19,23.68,1.08,8.73,1.55
274104,12.74,-1.60,26.68,1.29,8.73,1.55
274139,13.25,-4.08,28.45,1.58,8.73,1.76
274174,14.06,-4.84,32.43,1.89,8.73,2.08
274209,11.20,-8.37,34.88,1.90,8.73,2.55
274244,9.79,-12.18,37.77,1.65,8.73,2.88
274279,7.40,-11.89,40.59,1.26,8.73,2.99
274315,2.91,-10.04,41.80,0.76,8.73,2.88
274349,-1.95,-9.02,40.86,0.68,8.73,2.57
274384,-3.92,-10.78,35.85,0.46,8.73,2.41
274419,-5.18,-9.19,32.17,0.26,8.73,2.21
274454,-8.11,-5.84,30.53,0.12,8.73,1.94
274489,-5.62,-2.87,27.90,0.10,8.73,1.60
274524,-2.85,-1.22,24.10,0.32,8.73,1.35
274559,-2.54,-1.19,21.46,0.65,8.73,1.23
274594,2.24,1.07,22.68,0.92,8.73,1.37
274634,9.68,-3.32,24.41,1.19,8.73,1.52
274669,14.05,-3.12,25.45,1.34,8.73,1.59
274704,14.94,-6.45,27.38,1.45,8.73,1.75
274739,13.04,-5.20,31.27,1.60,8.73,1.95
274774,11.60,-8.23,33.56,1.64,8.73,2.32
274809,10.88,-10.31,35.74,1.55,8.73,2.75
274844,7.15,-14.65,37.45,1.31,8.73,3.07
274879,2.58,-13.70,39.11,0.81,8.73,3.13
274914,-0.94,-13.90,39.25,0.45,8.73,3.00
274949,-4.27,-6.38,39.91,0.15,8.73,2.74
274985,-7.51,-8.67,36.33,0.22,8.73,2.32
275019,-8.37,-4.49,35.58,0.03,8.73,2.01
275054,-5.62,-5.03,29.30,0.09,8.73,1.63
275089,-2.31,1.11,25.13,0.20,8.73,1.21
275124,0.58,3.56,23.36,0.55,8.73,0.84
275159,3.33,4.48,23.59,0.99,8.73,0.92
275194,8.22,2.04,21.90,1.29,8.73,1.17
275229,11.66,-2.97,24.97,1.57,8.73,1.39
275264,14.86,-6.29,29.06,1.73,8.73,1.67
275299,15.11,-7.68,34.07,1.81,8.73,1.99
275334,13.04,-7.75,37.37,1.86,8.73,2.42
275369,8.96,-12.18,39.04,1.69,8.73,2.82
275404,5.29,-12.85,40.46,1.40,8.73,3.05
275439,1.92,-13.09,41.34,0.92,8.73,3.05
275474,-1.84,-11.80,44.46,0.71,8.73,2.98
275509,-4.23,-10.54,36.62,0.46,8.73,2.71
275544,-7.41,-6.07,34.70,0.60,8.73,2.54
275579,-5.24,-8.27,29.25,0.66,8.73,2.41
275614,-2.38,-7.69,25.42,0.84,8.73,2.45
275649,-0.18,-9.36,20.78,0.95,8.73,2.62
275684,3.58,-10.91,18.11,0.78,8.73,2.55
275719,4.40,-6.34,18.26,0.67,8.73,2.08
275754,7.20,-4.69,17.80,0.77,8.73,1.73
275789,10.97,2.19,19.90,1.21,8.73,1.43
275824,11.93,-1.71,21.34,1.69,8.73,1.52
275859,13.00,-1.51,25.14,2.04,8.73,1.78
275894,12.49,-8.42,29.05,2.06,8.73,2.21
275929,11.22,-8.79,31.86,1.92,8.73,2.56
275964,8.00,-11.91,34.90,1.56,8.73,2.69
275999,4.73,-13.12,36.50,1.24,8.73,2.69
276034,3.02,-10.38,37.71,0.96,8.73,2.60
276069,-1.31,-10.67,36.82,0.81,8.73,2.50
276104,-4.65,-7.68,36.48,0.66,8.73,2.38
276139,-6.59,-6.87,32.54,0.46,8.73,2.26
276174,-4.89,-4.76,27.08,0.28,8.73,2.07
276209,-4.27,-3.02,22.64,0.29,8.73,1.78
276244,-3.39,-2.50,19.70,0.31,8.73,1.61
276279,-1.94,-0.72,19.20,0.49,8.73,1.49
276315,-0.28,-1.00,18.10,0.56,8.73,1.56
276349,6.10,-5.33,17.38,0.61,8.73,1.67
276384,9.90,-6.35,19.42,0.55,8.73,1.70
276419,12.30,-4.89,21.40,0.52,8.73,1.67
276454,13.37,-5.01,24.55,0.57,8.73,1.56
276489,13.44,-4.76,26.86,0.68,8.73,1.46
276524,12.15,-6.59,28.63,0.84,8.73,1.45
276559,9.71,-6.65,31.65,0.93,8.73,1.47
276594,7.39,-6.19,35.74,1.00,8.73,1.53
276629,4.80,-6.17,37.19,1.03,8.73,1.68
276669,-0.48,-8.47,36.55,1.14,8.73,1.77
276704,-3.13,-6.10,35.46,1.11,8.73,1.82
276739,-4.34,-4.04,31.61,1.22,8.73,1.85
276774,-4.56,-5.75,26.91,1.29,8.73,1.85
276809,-5.30,-7.11,23.73,1.31,8.73,1.94
276844,-5.18,-5.45,21.66,1.16,8.73,1.98
276879,-2.71,-2.98,19.67,1.12,8.73,1.92
276914,-0.72,-1.28,18.76,1.08,8.73,1.56
276949,2.50,2.35,19.06,1.26,8.73,1.15
276984,7.19,4.63,18.36,1.70,8.73,0.90
277019,8.44,3.52,19.21,2.21,8.73,1.06
277054,9.78,-1.36,21.18,2.44,8.73,1.48
277089,11.15,-5.69,25.30,2.35,8.73,1.96
277124,11.98,-8.79,29.69,2.06,8.73,2.29
277159,11.41,-9.29,33.87,1.68,8.73,2.45
277194,8.66,-11.13,36.76,1.43,8.73,2.51
277229,6.15,-10.54,38.24,1.25,8.73,2.59
277264,2.21,-10.36,37.89,1.05,8.73,2.62
277299,-1.09,-8.40,38.17,0.89,8.73,2.57
277334,-4.42,-6.11,35.06,0.86,8.73,2.40
277369,-5.90,-6.16,31.79,0.95,8.73,2.30
277404,-5.13,-7.47,26.83,0.98,8.73,2.26
277439,-4.51,-6.58,23.15,0.91,8.73,2.32
277474,-3.06,-6.88,19.38,0.87,8.73,2.32
277509,-0.42,-6.71,17.20,0.67,8.73,2.30
277544,1.91,-7.62,17.70,0.55,8.73,2.20
277579,4.46,-3.56,18.21,0.41,8.73,2.09
277614,6.00,-5.39,18.74,0.45,8.73,1.91
277649,10.50,-4.38,21.69,0.31,8.73,1.74
277684,12.43,-7.92,25.48,0.26,8.73,1.62
277719,12.84,-4.82,30.18,0.21,8.73,1.31
277754,11.88,-7.66,32.70,0.31,8.73,1.06
277789,10.33,-1.91,36.22,0.55,8.73,0.82
277825,7.26,-3.40,36.82,0.80,8.73,0.87
277859,3.37,-5.19,38.94,1.15,8.73,1.07
277894,0.60,-4.00,39.47,1.31,8.73,1.33
277929,-3.21,-7.58,35.88,1.41,8.73,1.52
277964,-5.35,-5.38,34.72,1.37,8.73,1.70
277999,-4.10,-5.36,29.15,1.29,8.73,1.83
278034,-6.14,-4.37,25.55,1.14,8.73,1.81
278069,-5.15,-4.05,22.66,1.00,8.73,1.74
278104,-5.13,-0.02,21.20,1.00,8.73,1.61
278139,-1.02,1.36,20.37,1.09,8.73,1.44
278174,4.92,1.89,21.10,1.23,8.73,1.46
278209,8.25,-2.60,21.66,1.45,8.73,1.52
278244,11.09,-4.39,23.38,1.30,8.73,1.74
278279,12.70,-8.09,25.38,1.08,8.73,1.90
278315,12.85,-6.28,29.32,0.82,8.73,1.79
278349,12.53,-7.94,32.47,0.64,8.73,1.66
278384,10.61,-4.78,36.11,0.77,8.73,1.49
278419,8.03,-4.27,38.00,0.86,8.73,1.41
278454,3.95,-5.77,38.59,0.98,8.73,1.53
278489,0.49,-4.23,38.33,1.09,8.73,1.52
278524,-2.78,-5.71,36.15,1.21,8.73,1.50
278559,-3.52,-3.16,33.44,1.40,8.73,1.58
278594,-5.62,-5.54,30.06,1.43,8.73,1.72
278629,-7.16,-5.88,27.41,1.39,8.73,1.80
278664,-6.00,-3.34,25.13,1.27,8.73,1.87
278704,-4.43,-3.71,21.43,1.20,8.73,1.89
278740,0.48,-2.36,19.71,1.21,8.73,1.86
278774,4.39,-4.76,19.69,1.20,8.73,1.90
278809,6.57,-1.10,21.36,1.24,8.73,1.92
278845,11.15,-3.68,23.36,1.24,8.73,1.98
278879,12.76,-5.20,26.25,1.33,8.73,2.05
278914,13.91,-5.02,28.83,1.27,8.73,2.11
278949,12.46,-9.27,31.52,1.25,8.73,2.22
278984,10.93,-6.54,34.08,1.06,8.73,2.20
279019,7.32,-8.43,35.72,1.03,8.73,2.20
279054,4.15,-7.23,37.10,0.91,8.73,2.13
279089,1.05,-9.41,37.02,0.81,8.73,2.18
279124,-2.15,-3.54,37.08,0.67,8.73,2.13
279159,-4.22,-6.53,34.75,0.60,8.73,2.06
279194,-6.00,-4.64,31.57,0.56,8.73,1.94
279229,-6.03,-3.51,28.05,0.52,8.73,1.83
279264,-6.03,-2.29,24.82,0.60,8.73,1.71
279299,-1.22,-0.47,22.29,0.69,8.73,1.68
279334,-0.61,-2.08,19.38,0.77,8.73,1.67
279369,0.39,-4.52,19.29,0.84,8.73,1.80
279404,5.08,-1.10,20.76,0.78,8.73,1.83
279439,9.72,-7.37,21.45,0.75,8.73,1.86
279474,12.86,-5.68,24.79,0.76,8.73,1.79
279509,13.67,-3.11,28.19,0.71,8.73,1.67
279544,12.83,-7.65,30.54,0.75,8.73,1.58
279579,10.86,-3.95,34.47,0.77,8.73,1.39
279614,9.18,-6.92,35.26,0.87,8.73,1.19
279649,5.64,-4.40,37.69,1.00,8.73,1.07
279684,2.21,-5.19,37.94,1.25,8.73,1.21
279719,-1.83,-6.06,38.34,1.45,8.73,1.42
279754,-4.55,-7.21,37.05,1.39,8.73,1.67
279789,-5.84,-6.57,33.19,1.45,8.73,1.86
279824,-5.75,-7.18,28.91,1.38,8.73,1.98
279859,-5.41,-4.23,25.62,1.35,8.73,2.14
279894,-3.54,-7.49,22.06,1.33,8.73,2.29
279929,-0.40,-7.12,19.58,1.18,8.73,2.32
279964,1.35,-4.09,19.47,1.02,8.73,2.26
279999,6.23,-4.41,19.15,1.02,8.73,2.12
280034,9.37,-0.77,21.78,1.09,8.73,2.04
280069,10.94,-2.94,24.61,1.25,8.73,2.00
280104,12.95,-4.53,27.26,1.29,8.73,2.07
280139,12.50,-4.71,30.52,1.16,8.73,2.12
280174,11.92,-9.62,32.31,1.01,8.73,2.17
280209,9.20,-5.72,35.68,0.90,8.73,2.08
280244,5.68,-7.48,37.95,0.84,8.73,2.07
280279,2.57,-8.51,38.85,0.78,8.73,2.06
280315,-0.49,-3.92,38.07,0.68,8.73,2.03
280349,-3.50,-6.84,35.79,0.67,8.73,1.97
280384,-6.02,-3.07,34.00,0.71,8.73,1.89
280419,-5.94,-2.97,30.57,0.83,8.73,1.87
280454,-5.70,-5.30,26.23,0.93,8.73,1.88
280489,-2.91,-0.72,23.23,0.94,8.73,1.93
280524,-0.47,-3.88,19.50,1.00,8.73,1.95
280559,2.44,-5.59,18.44,1.00,8.73,1.93
280594,6.22,-0.63,18.72,0.94,8.73,1.92
280629,7.69,-6.54,18.64,0.99,8.73,1.94
280664,10.66,-3.42,22.49,1.09,8.73,1.93
280699,12.50,-4.68,26.24,1.04,8.73,1.99
280739,12.71,-5.32,30.59,1.03,8.73,2.03
280774,11.40,-8.70,33.28,1.07,8.73,2.04
280809,9.31,-7.10,36.28,0.94,8.73,1.95
280845,5.91,-8.47,37.67,0.93,8.73,1.96
280879,2.62,-6.68,38.43,0.99,8.73,1.86
280914,-0.52,-8.32,37.54,0.99,8.73,1.89
280949,-4.05,-6.18,35.90,1.05,8.73,1.89
280984,-5.97,-5.24,33.21,0.99,8.73,1.86
281019,-7.14,-4.61,29.16,0.97,8.73,1.91
281054,-5.92,-5.61,25.05,1.00,8.73,1.87
281089,-3.77,-0.98,23.04,0.91,8.73,1.85
281124,-1.05,-3.79,20.70,1.04,8.73,1.85
281159,0.66,-1.86,19.60,0.99,8.73,1.69
281194,3.74,-1.94,18.43,1.04,8.73,1.68
281229,7.66,-1.44,19.78,1.27,8.73,1.66
281264,10.97,-0.31,23.48,1.38,8.73,1.73
281299,13.39,-5.96,26.88,1.46,8.73,1.94
281335,13.09,-5.60,30.33,1.49,8.73,2.07
281370,12.45,-7.98,33.41,1.28,8.73,2.14
281404,9.17,-8.73,36.08,1.17,8.73,2.11
281439,7.43,-6.62,38.29,1.05,8.73,2.01
281474,3.68,-8.51,38.32,1.04,8.73,1.96
281509,0.47,-5.69,37.95,1.13,8.73,1.88
281544,-3.25,-9.04,36.78,1.11,8.73,1.90
281579,-5.94,-4.54,34.73,1.16,8.73,1.95
281614,-5.73,-5.64,29.58,1.06,8.73,1.92
281649,-5.32,-5.45,25.41,0.94,8.73,1.93
281684,-4.89,-2.60,23.38,0.99,8.73,1.90
281719,-3.66,-4.56,20.58,0.94,8.73,1.95
281754,-0.32,-4.91,19.67,0.97,8.73,1.99
281789,4.87,-3.81,20.69,0.98,8.73,1.91
281825,7.29,-5.54,20.75,0.88,8.73,1.96
281859,10.54,-6.42,23.10,0.93,8.73,2.00
281894,12.24,-5.02,27.58,0.92,8.73,1.90
281929,12.98,-7.60,30.95,0.90,8.73,1.94
281964,12.45,-7.56,34.00,1.07,8.73,1.94
281999,10.78,-5.87,36.87,0.98,8.73,1.93
282034,6.93,-7.32,38.16,0.97,8.73,2.00
282069,3.88,-8.16,39.71,0.92,8.73,2.03
282104,0.48,-5.37,40.59,0.82,8.73,2.12
282139,-2.94,-9.05,37.37,0.69,8.73,2.13
282174,-4.25,-3.79,34.15,0.56,8.73,2.07
282209,-5.76,-3.51,31.24,0.52,8.73,1.96
282244,-5.94,-3.07,28.00,0.57,8.73,1.85
282279,-4.58,-1.35,25.42,0.76,8.73,1.83
282315,-3.51,-3.23,22.36,0.86,8.73,1.89
282349,0.97,-3.35,21.33,0.90,8.73,1.94
282384,7.02,-4.40,21.35,0.91,8.73,1.94
282419,9.29,-3.90,21.99,1.05,8.73,1.90
282454,11.58,-3.01,24.83,1.16,8.73,1.83
282489,12.51,-5.39,28.29,1.23,8.73,1.91
282524,11.93,-5.49,31.66,1.38,8.73,1.95
282559,11.77,-7.02,34.34,1.26,8.73,2.08
282594,9.24,-7.29,37.41,1.18,8.73,2.07
282629,6.38,-7.31,38.76,1.12,8.73,1.97
282664,3.38,-6.07,40.00,1.13,8.73,1.88
282699,-0.89,-10.29,38.44,1.23,8.73,1.87
282734,-4.13,-4.68,37.68,1.30,8.73,1.92
282774,-5.82,-6.70,33.61,1.30,8.73,2.09
282809,-6.59,-5.91,30.10,1.19,8.73,2.15
282844,-6.00,-7.71,26.92,1.09,8.73,2.27
282879,-3.48,-4.87,24.49,1.09,8.73,2.35
282914,-0.98,-7.73,20.86,0.94,8.73,2.40
282949,0.17,-6.89,20.27,0.80,8.73,2.42
282984,6.70,-5.04,21.56,0.62,8.73,2.33
283019,10.87,-4.62,24.18,0.61,8.73,2.20
283054,12.01,-6.19,26.47,0.69,8.73,2.05
283089,12.83,-4.86,30.02,0.74,8.73,1.91
283124,12.31,-5.19,33.31,0.78,8.73,1.87
283159,11.31,-6.11,36.42,0.86,8.73,1.78
283194,8.44,-7.09,38.47,0.93,8.73,1.76
283229,5.67,-5.19,40.38,1.01,8.73,1.76
283264,1.10,-6.58,38.90,1.06,8.73,1.77
283299,-2.08,-3.56,38.89,1.05,8.73,1.80
283335,-4.89,-4.67,37.17,1.10,8.73,1.81
283370,-4.07,-4.45,32.08,1.15,8.73,1.88
283404,-4.81,-3.75,28.41,1.11,8.73,1.88
283439,-6.20,-2.81,25.91,1.06,8.73,1.95
283474,-5.32,-4.27,23.50,1.13,8.73,2.09
283509,-0.14,-4.60,21.41,1.07,8.73,2.21
283544,3.82,-6.15,20.99,0.99,8.73,2.31
283579,7.34,-5.51,21.61,0.82,8.73,2.31
283614,12.37,-6.73,24.03,0.72,8.73,2.29
283649,13.32,-6.62,27.74,0.71,8.73,2.18
283684,13.23,-5.74,31.24,0.76,8.73,2.09
283719,12.57,-8.95,33.55,0.74,8.73,2.10
283754,10.11,-6.97,36.86,0.73,8.73,1.99
283789,7.93,-6.15,38.62,0.68,8.73,1.80
283825,3.96,-6.55,39.67,0.70,8.73,1.72
283859,0.49,-5.93,39.33,0.73,8.73,1.72
283894,-3.30,-5.94,38.29,0.58,8.73,1.75
283929,-4.94,-4.34,35.87,0.59,8.73,1.73
283964,-6.35,-4.68,31.89,0.46,8.73,1.60
283999,-5.28,1.12,29.96,0.46,8.73,1.37
284034,-4.41,0.41,26.57,0.54,8.73,1.19
284069,-3.01,2.49,23.99,0.84,8.73,1.13
284104,1.61,1.88,21.59,1.11,8.73,1.18
284139,7.07,-0.09,21.14,1.28,8.73,1.35
284174,8.32,-1.34,22.58,1.39,8.73,1.54
284209,11.23,-4.70,23.47,1.42,8.73,1.73
284244,12.86,-4.03,27.49,1.49,8.73,1.86
284279,13.12,-6.29,30.61,1.44,8.73,2.03
284315,11.83,-8.69,33.93,1.43,8.73,2.22
284349,9.91,-7.56,37.72,1.31,8.73,2.33
284384,7.07,-8.32,39.09,1.15,8.73,2.45
284419,2.73,-9.27,39.09,0.98,8.73,2.44
284454,-0.77,-9.61,38.70,0.91,8.73,2.32
284489,-4.08,-7.33,38.21,0.87,8.73,2.21
284524,-6.74,-7.60,35.23,0.89,8.73,2.20
284559,-6.25,-7.24,31.54,0.80,8.73,2.20
284594,-5.86,-4.70,28.21,0.75,8.73,2.15
284629,-3.35,-5.84,23.90,0.71,8.73,2.11
284664,-0.40,-3.97,21.41,0.73,8.73,2.04
284699,2.21,-4.67,19.58,0.71,8.73,1.92
284734,6.25,-2.43,19.80,0.64,8.73,1.86
284769,8.38,-7.37,20.02,0.72,8.73,1.82
284809,11.25,-7.20,23.15,0.63,8.73,1.75
284845,12.76,-3.96,27.10,0.64,8.73,1.59
284879,12.21,-6.59,30.97,0.58,8.73,1.51
284914,12.42,-4.85,34.65,0.77,8.73,1.37
284949,8.95,-5.42,37.40,0.91,8.73,1.23
284984,6.28,-5.16,38.37,1.10,8.73,1.19
285019,2.36,-5.96,39.44,1.46,8.73,1.17
285054,-1.04,-4.37,39.95,1.70,8.73,1.33
285089,-3.58,-7.91,36.75,1.79,8.73,1.59
285124,-6.45,-8.16,33.89,1.79,8.73,1.88
285159,-7.08,-7.46,29.65,1.55,8.73,2.05
285194,-5.82,-5.52,26.48,1.34,8.73,2.11
285229,-2.10,-5.23,22.99,1.20,8.73,2.06
285264,0.82,-2.07,20.68,1.07,8.73,1.88
285299,2.51,0.39,20.39,1.14,8.73,1.76
285335,7.41,-1.26,20.90,1.29,8.73,1.67
285369,10.38,0.44,22.80,1.46,8.73,1.71
285404,11.08,-2.61,24.74,1.54,8.73,1.83
285439,12.13,-5.21,27.35,1.44,8.73,1.99
285474,12.79,-5.12,30.88,1.24,8.73,1.98
285509,11.56,-9.13,33.57,1.00,8.73,1.86
285544,9.53,-5.49,36.37,0.94,8.73,1.56
285579,6.21,-5.48,38.33,1.05,8.73,1.34
285614,2.55,-5.37,38.92,1.37,8.73,1.21
285649,-0.51,-2.98,38.29,1.64,8.73,1.25
285684,-4.01,-5.68,35.78,1.86,8.73,1.43
285719,-6.63,-5.77,33.14,1.98,8.73,1.70
285754,-6.99,-8.37,29.52,1.79,8.73,1.94
285789,-7.53,-7.27,26.90,1.52,8.73,2.06
285824,-4.25,-3.30,23.56,1.37,8.73,2.06
285859,-0.84,-4.57,20.85,1.28,8.73,2.03
285894,2.43,-3.78,20.54,1.20,8.73,1.99
285929,7.66,-3.72,20.29,1.26,8.73,1.95
285964,10.49,-3.43,21.93,1.21,8.73,2.00
285999,11.66,-4.53,23.19,1.18,8.73,2.05
286034,12.23,-6.76,26.03,1.08,8.73,2.07
286069,12.64,-5.27,30.21,0.92,8.73,2.05
286104,11.52,-8.19,33.57,0.87,8.73,2.00
286139,9.34,-5.14,37.05,0.82,8.73,1.88
286174,5.91,-6.44,38.72,0.86,8.73,1.81
286209,2.39,-7.09,38.64,0.99,8.73,1.68
286244,-0.41,-4.02,37.06,1.06,8.73,1.66
286279,-3.88,-6.87,34.83,1.19,8.73,1.68
286315,-5.80,-5.51,32.81,1.03,8.73,1.75
286349,-7.09,-4.55,29.87,0.88,8.73,1.80
286384,-7.22,-1.42,26.71,0.80,8.73,1.63
286419,-2.91,-0.11,22.87,0.70,8.73,1.49
286454,-1.20,1.75,20.51,0.92,8.73,1.44
286489,1.45,-0.52,19.99,1.06,8.73,1.42
286524,6.47,-1.58,19.60,1.09,8.73,1.58
286559,7.74,-2.24,20.38,1.19,8.73,1.70
286594,11.02,-4.36,21.90,1.08,8.73,1.77
286629,13.23,-6.74,26.27,1.02,8.73,1.86
286664,13.41,-4.58,30.43,0.90,8.73,1.81
286699,11.58,-9.13,32.41,0.94,8.73,1.81
286734,10.22,-4.20,35.16,0.84,8.73,1.72
286769,6.85,-7.30,36.05,0.92,8.73,1.77
286804,3.94,-5.18,37.71,0.95,8.73,1.67
286844,0.44,-4.28,38.58,1.08,8.73,1.65
286879,-3.48,-8.27,35.56,1.20,8.73,1.67
286914,-6.19,-3.74,34.50,1.22,8.73,1.74
286949,-6.41,-4.87,29.43,1.17,8.73,1.86
286984,-5.59,-4.80,25.15,1.14,8.73,1.84
287019,-6.42,-2.66,23.12,0.98,8.73,1.82
287054,-5.03,-2.74,20.83,1.08,8.73,1.85
287089,-1.28,-1.45,19.66,1.05,8.73,1.76
287124,3.03,-3.80,19.05,1.07,8.73,1.90
287159,7.63,-0.55,21.03,1.09,8.73,1.91
287194,11.55,-7.75,21.59,1.04,8.73,1.96
287229,13.43,-6.38,24.38,0.99,8.73,1.94
287264,13.39,-7.28,27.13,0.84,8.73,1.92
287299,12.80,-5.64,30.27,0.88,8.73,1.83
287334,10.94,-7.46,32.20,0.72,8.73,1.79
287369,7.91,-5.16,34.95,0.79,8.73,1.76
287404,5.36,-7.80,35.72,0.79,8.73,1.83
287439,1.81,-5.23,36.43,0.78,8.73,1.78
287474,-0.69,-8.34,34.15,0.71,8.73,1.75
287509,-4.25,-3.36,33.59,0.58,8.73,1.74
287544,-5.11,-3.57,30.37,0.61,8.73,1.68
287579,-6.17,-1.98,26.21,0.53,8.73,1.50
287614,-6.91,-2.64,23.42,0.51,8.73,1.32
287649,-5.98,2.33,22.08,0.56,8.73,1.19
287685,-4.31,2.83,20.03,0.87,8.73,1.13
287719,0.62,0.82,18.18,1.10,8.73,1.18
287754,6.33,-1.79,17.46,1.29,8.73,1.35
287789,8.41,0.16,19.34,1.36,8.73,1.57
287824,10.88,-4.04,20.42,1.48,8.73,1.74
287859,11.28,-5.75,22.77,1.55,8.73,1.87
287894,13.11,-7.58,26.08,1.52,8.73,2.09
287930,12.46,-8.44,29.88,1.39,8.73,2.23
287964,10.24,-10.25,32.91,1.19,8.73,2.32
287999,6.97,-8.36,35.76,1.03,8.73,2.35
288034,3.39,-8.95,36.43,0.82,8.73,2.31
288069,0.87,-10.22,35.69,0.74,8.73,2.18
288104,-3.25,-6.36,36.65,0.75,8.73,2.05
288139,-5.75,-6.55,33.60,0.58,8.73,1.97
288174,-6.83,-4.14,31.11,0.52,8.73,1.83
288209,-6.65,-3.96,27.30,0.39,8.73,1.64
288244,-5.88,-0.33,25.29,0.45,8.73,1.39
288279,-5.33,-0.24,22.92,0.62,8.73,1.27
288315,-1.34,0.82,20.31,0.87,8.73,1.16
288349,2.58,0.77,19.52,1.17,8.73,1.09
288384,7.30,-0.57,18.73,1.38,8.73,1.18
288419,11.47,-1.18,20.36,1.70,8.73,1.31
288454,12.79,-3.53,23.42,1.91,8.73,1.53
288489,11.88,-4.95,25.70,2.00,8.73,1.89
288524,13.04,-6.89,30.18,1.95,8.73,2.27
288559,11.59,-12.45,33.31,1.77,8.73,2.61
288594,7.77,-10.92,36.09,1.42,8.73,2.70
288629,4.95,-12.39,37.80,1.09,8.73,2.71
288664,0.89,-11.97,38.21,0.78,8.73,2.60
288699,-2.26,-12.16,37.19,0.65,8.73,2.49
288734,-4.26,-8.01,35.58,0.45,8.73,2.34
288769,-7.51,-7.08,32.94,0.30,8.73,2.15
288804,-8.13,-5.42,31.00,0.28,8.73,1.94
288839,-6.12,-0.80,27.78,0.43,8.73,1.69
288879,-1.15,0.65,22.83,0.63,8.73,1.46
288914,3.24,-0.02,20.35,0.86,8.73,1.20
288949,5.61,3.05,21.00,1.19,8.73,1.08
288984,7.00,-0.43,19.93,1.45,8.73,1.16
289019,9.57,-2.74,21.95,1.72,8.73,1.36
289054,11.28,-5.52,24.68,1.98,8.73,1.63
289089,13.50,-6.52,29.89,1.93,8.73,1.97
289124,12.52,-9.27,33.26,1.77,8.73,2.22
289159,10.20,-11.40,37.46,1.45,8.73,2.33
289194,6.71,-11.92,38.22,1.24,8.73,2.28
289229,2.85,-11.62,38.37,0.96,8.73,2.14
289264,0.02,-9.88,38.19,1.00,8.73,2.16
289299,-2.50,-9.48,35.89,0.79,8.73,2.18
289334,-4.86,-7.37,32.49,0.44,8.73,2.09
289369,-6.03,-7.60,29.11,0.24,8.73,1.89
289404,-6.14,-0.61,26.88,0.16,8.73,1.54
289439,-3.30,-0.11,22.97,0.25,8.73,1.25
289474,-1.73,1.40,20.88,0.56,8.73,1.11
289509,2.35,1.13,18.64,0.89,8.73,1.03
289544,5.88,1.13,19.03,1.22,8.73,1.03
289579,7.89,-0.96,20.06,1.48,8.73,1.22
289614,9.85,-1.46,23.40,1.60,8.73,1.53
289649,12.86,-6.90,26.28,1.84,8.73,1.85
289684,12.02,-7.15,31.84,1.92,8.73,2.19
289719,10.58,-9.86,35.11,1.79,8.73,2.57
289754,9.45,-12.01,38.03,1.55,8.73,2.91
289789,5.54,-12.65,40.37,1.20,8.73,3.10
289824,0.42,-13.26,40.60,0.70,8.73,3.01
289859,-1.36,-12.64,37.87,0.40,8.73,2.81
289894,-6.04,-9.60,35.74,-0.04,8.73,2.56
289929,-7.55,-5.77,33.71,-0.30,8.73,2.15
289964,-7.18,-3.56,29.65,-0.39,8.73,1.63
289999,-6.35,2.01,28.02,-0.25,8.73,1.21
290034,-2.95,2.49,25.51,0.19,8.73,1.00
290069,-0.77,2.42,23.01,0.67,8.73,1.03
290104,3.98,0.06,23.18,1.03,8.73,1.19
290139,9.87,-2.88,24.68,1.25,8.73,1.40
290174,12.92,-4.94,27.45,1.40,8.73,1.59
290209,13.71,-5.85,31.23,1.50,8.73,1.71
290244,14.93,-8.68,32.53,1.68,8.73,1.96
290279,11.00,-11.64,35.14,1.73,8.73,2.30
290315,7.92,-12.00,36.71,1.58,8.73,2.63
290349,5.90,-13.19,39.59,1.29,8.73,2.86
290384,1.81,-12.05,39.35,0.87,8.73,2.86
290419,-1.31,-11.41,37.70,0.67,8.73,2.70
290454,-3.73,-9.74,33.99,0.37,8.73,2.51
290489,-6.39,-6.45,30.24,0.17,8.73,2.26
290524,-5.76,-6.12,25.85,0.04,8.73,1.94
290559,-6.11,-1.08,23.69,0.10,8.73,1.59
290594,-4.30,-1.08,21.66,0.31,8.73,1.40
290630,-2.03,1.03,20.24,0.56,8.73,1.19
290664,1.65,0.11,18.44,0.86,8.73,1.05
290699,8.50,-0.69,20.27,1.11,8.73,1.15
290734,12.43,0.09,22.29,1.41,8.73,1.28
290769,13.55,-5.98,23.60,1.62,8.73,1.51
290804,13.90,-4.35,27.27,1.69,8.73,1.71
290839,12.55,-8.51,30.65,1.64,8.73,2.00
290874,10.75,-10.81,33.40,1.58,8.73,2.25
290914,6.78,-10.37,35.81,1.35,8.73,2.44
290949,4.74,-10.05,35.88,1.04,8.73,2.46
290984,0.53,-12.40,35.28,0.76,8.73,2.48
291019,-2.92,-8.54,35.17,0.54,8.73,2.42
291054,-4.43,-8.08,31.64,0.36,8.73,2.28
291089,-6.65,-5.73,29.15,0.20,8.73,2.03
291124,-7.10,-6.08,25.34,0.16,8.73,1.74
291159,-6.16,-1.84,22.54,0.17,8.73,1.50
291194,-3.51,-0.23,19.73,0.38,8.73,1.26
291229,-1.44,0.49,17.07,0.56,8.73,1.00
291264,1.38,1.24,16.80,0.82,8.73,0.93
291299,6.70,1.47,16.85,1.12,8.73,0.98
291334,9.42,-2.28,18.76,1.35,8.73,1.17
291370,11.93,-1.82,21.77,1.56,8.73,1.38
291404,13.48,-4.95,25.24,1.64,8.73,1.60
291439,12.90,-5.81,28.68,1.76,8.73,1.84
291474,12.15,-7.92,30.80,1.72,8.73,2.17
291509,9.22,-8.69,32.96,1.64,8.73,2.52
291544,7.26,-11.68,34.17,1.41,8.73,2.85
291579,2.54,-13.06,35.89,1.01,8.73,2.99
291614,-0.38,-10.07,36.99,0.70,8.73,2.97
291649,-3.56,-8.25,34.82,0.59,8.73,2.71
291684,-4.92,-9.86,30.14,0.40,8.73,2.49
291719,-6.21,-6.39,27.02,0.33,8.73,2.31
291754,-6.89,-4.48,24.11,0.27,8.73,2.12
291789,-6.19,-4.98,20.89,0.31,8.73,1.98
291824,-3.80,-3.66,19.81,0.31,8.73,1.91
291859,0.06,-3.82,18.11,0.40,8.73,1.85
291894,3.42,-4.07,17.40,0.40,8.73,1.76
291929,9.07,-2.70,17.96,0.46,8.73,1.61
291964,13.16,-5.48,19.39,0.43,8.73,1.57
291999,13.83,-7.05,20.27,0.34,8.73,1.43
292034,13.36,-6.28,22.05,0.30,8.73,1.25
292069,12.02,-4.70,23.96,0.26,8.73,1.03
292104,11.23,-3.20,26.47,0.48,8.73,0.90
292139,9.41,-2.94,30.03,0.80,8.73,0.96
292174,7.27,-4.57,32.21,0.99,8.73,1.18
292209,4.28,-6.52,33.20,1.05,8.73,1.36
292244,0.81,-7.19,33.62,1.16,8.73,1.50
292279,-1.86,-4.47,32.34,1.26,8.73,1.53
292315,-4.84,-3.71,31.29,1.45,8.73,1.56
292349,-7.06,-6.03,28.38,1.63,8.73,1.70
292384,-6.73,-6.10,25.07,1.61,8.73,1.87
292419,-6.28,-8.04,21.81,1.52,8.73,2.03
292454,-4.98,-8.05,18.50,1.33,8.73,2.14
292489,-2.14,-3.95,16.24,1.18,8.73,2.12
292524,1.23,-3.87,14.34,1.08,8.73,2.05
292559,3.82,-2.08,14.31,1.05,8.73,1.96
292594,5.54,-2.24,15.95,1.11,8.73,1.94
292629,8.36,-3.74,16.98,1.16,8.73,2.02
292664,11.11,-4.33,20.14,1.21,8.73,2.06
292699,12.81,-1.57,25.55,1.51,8.73,2.17
292734,11.89,-6.14,27.89,1.69,8.73,2.48
292769,10.24,-7.44,30.23,1.52,8.73,2.78
292804,8.89,-9.32,31.76,1.26,8.73,3.00
292840,5.44,-12.17,33.12,0.93,8.73,3.13
292874,2.49,-9.97,34.73,0.50,8.73,3.04
292909,-0.04,-7.78,36.60,0.22,8.73,2.73
292949,-4.15,-5.61,36.06,0.14,8.73,2.32
292984,-6.16,-4.20,32.83,0.17,8.73,2.09
293019,-5.79,-3.76,27.67,0.09,8.73,1.86
293054,-4.60,-2.04,23.41,0.02,8.73,1.55
293089,-4.93,1.61,20.97,0.08,8.73,1.33
293124,-3.61,0.85,19.12,0.38,8.73,1.37
293159,0.95,-1.69,18.17,0.54,8.73,1.58
293194,5.11,-4.54,16.93,0.52,8.73,1.80
293229,6.97,-7.06,17.82,0.41,8.73,1.83
293264,10.64,-4.52,20.17,0.30,8.73,1.73
293299,12.27,-6.77,23.47,0.28,8.73,1.61
293334,12.75,-5.45,25.66,0.26,8.73,1.41
293369,11.55,-3.93,29.18,0.46,8.73,1.28
293404,10.75,-5.64,32.21,0.63,8.73,1.31
293439,8.80,-4.42,35.69,0.87,8.73,1.40
293474,5.18,-6.71,36.41,0.94,8.73,1.51
293509,1.01,-5.71,36.41,1.07,8.73,1.54
293544,-1.87,-9.00,34.83,1.09,8.73,1.66
293579,-4.50,-5.45,34.75,1.05,8.73,1.76
293614,-5.79,-7.76,30.59,1.02,8.73,1.92
293649,-5.72,-4.95,26.79,0.77,8.73,1.84
293684,-5.86,-2.59,23.76,0.56,8.73,1.71
293719,-4.03,-0.15,21.32,0.75,8.73,1.59
293754,-1.81,-0.17,19.22,0.73,8.73,1.47
293789,1.17,-2.74,17.94,0.87,8.73,1.49
293824,6.78,0.18,19.76,0.89,8.73,1.48
293859,8.26,-6.19,19.50,0.98,8.73,1.57
293894,10.26,-3.74,21.41,0.78,8.73,1.62
293929,12.44,-4.42,24.51,0.77,8.73,1.63
293964,12.46,-4.68,28.38,0.69,8.73,1.59
293999,11.90,-6.67,32.26,0.82,8.73,1.52
294034,10.57,-3.79,36.15,0.85,8.73,1.40
294069,7.34,-5.00,37.90,0.98,8.73,1.45
294104,3.51,-6.49,38.64,1.18,8.73,1.48
294139,0.20,-6.83,39.20,1.23,8.73,1.68
294174,-3.26,-7.08,37.12,1.34,8.73,1.79
294209,-4.43,-4.17,35.66,1.43,8.73,1.85
294244,-6.90,-5.18,31.91,1.60,8.73,2.01
294279,-6.52,-7.21,27.34,1.53,8.73,2.17
294315,-4.82,-7.29,23.09,1.35,8.73,2.29
294349,-1.76,-6.60,19.25,1.27,8.73,2.40
294384,1.41,-5.92,18.85,1.07,8.73,2.28
294419,3.63,-3.51,19.81,0.97,8.73,2.22
294454,4.88,-5.89,20.24,0.99,8.73,2.15
294489,10.86,-3.58,23.81,0.93,8.73,2.15
294524,12.56,-6.93,27.70,0.91,8.73,2.13
294559,13.74,-8.19,30.35,0.82,8.73,2.07
294594,12.27,-7.00,33.88,0.79,8.73,1.99
294629,10.96,-6.03,37.00,0.70,8.73,1.86
294664,7.27,-6.21,38.59,0.74,8.73,1.80
294699,3.70,-5.47,39.23,0.84,8.73,1.68
294734,-0.02,-5.09,39.98,0.82,8.73,1.72
294770,-2.88,-7.17,37.43,0.90,8.73,1.72
294804,-4.75,-4.22,35.10,0.87,8.73,1.72
294840,-4.80,-3.68,30.21,0.87,8.73,1.71
294874,-5.33,-3.40,26.14,0.78,8.73,1.54
294909,-6.56,0.63,25.70,0.71,8.73,1.41
294944,-1.61,1.83,22.72,0.87,8.73,1.30
294984,-0.21,4.64,19.44,1.11,8.73,1.01
295019,5.72,1.94,20.34,1.42,8.73,1.07
295054,8.74,2.32,21.52,1.55,8.73,1.24
295089,11.44,-3.80,22.82,1.73,8.73,1.51
295124,12.61,-4.32,25.90,1.68,8.73,1.72
295159,12.77,-7.03,28.86,1.39,8.73,1.87
295194,11.62,-7.81,32.95,1.33,8.73,1.85
295229,10.08,-6.39,36.26,1.18,8.73,1.77
295264,7.09,-6.76,37.70,1.23,8.73,1.76
295299,3.42,-5.77,38.24,1.27,8.73,1.72
295334,-0.08,-8.22,37.64,1.38,8.73,1.74
295369,-3.45,-3.80,36.64,1.58,8.73,1.75
295404,-5.85,-6.80,33.90,1.69,8.73,1.89
295439,-6.42,-7.30,30.27,1.81,8.73,2.12
295474,-6.58,-8.76,26.32,1.71,8.73,2.37
295509,-6.87,-9.44,23.07,1.57,8.73,2.58
295544,-4.44,-9.02,20.87,1.26,8.73,2.65
295579,-0.45,-7.00,19.56,1.00,8.73,2.46
295614,4.32,-5.45,20.29,0.84,8.73,2.33
295649,6.94,-5.58,21.51,0.84,8.73,2.16
295684,11.94,-5.28,22.84,0.80,8.73,2.08
295719,13.57,-5.67,26.19,0.79,8.73,2.04
295754,14.00,-6.33,30.34,0.69,8.73,1.95
295789,12.71,-5.73,33.70,0.64,8.73,1.86
295824,10.88,-6.85,35.70,0.69,8.73,1.74
295859,7.93,-4.78,37.86,0.78,8.73,1.69
295894,4.21,-6.04,38.43,0.91,8.73,1.69
295929,0.17,-6.58,38.56,0.96,8.73,1.74
295964,-2.99,-5.42,37.81,0.90,8.73,1.80
295999,-5.10,-4.26,34.49,1.04,8.73,1.79
296034,-5.83,-4.98,31.30,1.06,8.73,1.78
296069,-5.79,-3.34,28.14,1.10,8.73,1.86
296104,-4.98,-2.57,24.21,1.18,8.73,1.86
296139,-2.21,-3.10,21.46,1.11,8.73,1.86
296174,1.59,-1.72,19.03,1.11,8.73,1.86
296209,3.68,-2.81,19.09,1.16,8.73,1.82
296244,7.00,-1.63,20.28,1.13,8.73,1.82
296279,10.29,-4.03,21.34,1.29,8.73,1.87
296315,12.73,-4.23,24.91,1.30,8.73,1.94
296349,13.10,-7.60,27.89,1.19,8.73,2.07
296384,12.30,-4.96,31.72,1.10,8.73,2.07
296419,11.49,-9.33,33.46,0.93,8.73,2.06
296454,8.70,-7.12,36.21,0.91,8.73,1.96
296489,5.05,-8.06,37.03,0.89,8.73,1.93
296524,1.47,-6.39,36.89,0.87,8.73,1.92
296559,-1.86,-5.74,36.99,0.70,8.73,1.99
296594,-4.79,-5.04,34.99,0.79,8.73,1.97
296629,-5.88,-4.31,31.35,0.81,8.73,1.87
296664,-5.09,-4.90,27.44,0.84,8.73,1.90
296699,-4.97,-1.85,24.62,0.98,8.73,1.88
296734,-3.18,-6.26,20.57,0.92,8.73,1.95
296769,0.01,-3.51,18.69,0.96,8.73,1.97
296804,2.85,-2.65,18.66,0.92,8.73,1.90
296840,6.09,-5.16,17.82,0.88,8.73,1.91
296874,8.92,-1.51,20.08,0.92,8.73,1.88
296909,10.43,-7.18,22.33,0.99,8.73,1.86
296944,12.19,-2.94,26.41,1.05,8.73,1.77
296979,12.96,-6.43,29.06,1.04,8.73,1.87
297019,11.64,-8.09,32.63,1.04,8.73,1.91
297054,9.08,-5.35,35.35,1.08,8.73,1.91
297089,5.79,-7.78,36.50,1.01,8.73,1.95
297124,2.42,-6.86,36.27,1.02,8.73,1.90
297159,-0.84,-7.00,35.71,0.95,8.73,1.93
297194,-4.33,-2.90,35.36,1.03,8.73,1.89
297229,-5.78,-6.29,32.52,1.05,8.73,1.93
297264,-6.84,-5.13,29.17,0.98,8.73,1.96
297299,-6.30,-3.14,25.36,0.89,8.73,2.05
297335,-4.47,-2.91,21.97,1.02,8.73,2.08
297369,-4.19,-5.51,18.68,0.90,8.73,2.16
297404,-0.42,-5.70,17.42,0.86,8.73,2.18
297439,3.82,-3.91,18.18,0.71,8.73,2.18
297474,6.47,-6.91,18.45,0.70,8.73,2.08
297509,11.69,-4.58,21.43,0.53,8.73,2.02
297544,12.78,-6.93,24.48,0.49,8.73,1.95
297579,12.17,-5.12,27.50,0.47,8.73,1.73
297614,12.44,-6.53,30.76,0.51,8.73,1.67
297649,10.64,-4.31,35.25,0.66,8.73,1.56
297684,8.48,-5.80,37.60,0.74,8.73,1.52
297719,4.18,-5.58,39.00,0.89,8.73,1.49
297754,1.14,-4.54,39.46,1.01,8.73,1.59
297789,-2.73,-6.63,37.40,1.04,8.73,1.67
297824,-4.30,-3.63,34.42,1.09,8.73,1.74
297859,-5.38,-6.05,29.83,1.15,8.73,1.76
297894,-5.47,-4.50,26.57,1.10,8.73,1.78
297929,-4.57,-1.45,24.08,1.09,8.73,1.86
297964,-2.65,-3.00,20.57,1.17,8.73,1.90
297999,0.66,-3.47,18.72,1.09,8.73,1.79
298034,4.16,-3.28,19.40,1.12,8.73,1.80
298069,7.25,0.00,18.98,1.23,8.73,1.69
298104,9.67,-2.76,19.86,1.33,8.73,1.76
298139,11.43,-1.74,23.09,1.48,8.73,1.82
298174,12.24,-4.86,25.72,1.50,8.73,2.01
298209,12.03,-4.31,29.90,1.47,8.73,2.13
298244,11.37,-8.53,31.93,1.28,8.73,2.26
298279,8.75,-6.27,35.12,1.18,8.73,2.16
298315,5.55,-7.01,37.29,1.08,8.73,2.09
298349,2.13,-8.09,37.55,1.13,8.73,1.98
298384,-0.33,-4.73,37.24,1.22,8.73,1.85
298419,-3.46,-4.58,35.04,1.57,8.73,1.80
298454,-6.44,-6.75,32.84,1.68,8.73,1.90
298489,-7.33,-8.02,28.44,1.69,8.73,2.13
298524,-6.29,-7.11,24.77,1.55,8.73,2.27
298559,-4.23,-8.27,21.51,1.36,8.73,2.35
298594,-1.89,-4.65,19.27,1.16,8.73,2.28
298629,1.54,-3.24,18.13,1.04,8.73,2.10
298664,5.81,-4.61,17.34,1.03,8.73,2.00
298699,7.52,-3.94,18.89,0.93,8.73,2.05
298734,10.01,-7.75,21.34,0.86,8.73,2.10
298769,11.93,-6.24,25.63,0.70,8.73,2.02
298804,13.32,-7.04,27.98,0.58,8.73,1.93
298839,12.34,-5.47,32.03,0.64,8.73,1.81
298874,10.94,-7.30,34.35,0.65,8.73,1.72
298909,7.39,-5.48,36.33,0.71,8.73,1.71
298944,4.48,-6.56,38.23,0.76,8.73,1.70
298979,-0.04,-5.48,38.62,0.81,8.73,1.65
299014,-2.21,-6.28,35.72,0.74,8.73,1.64
299054,-5.07,-5.33,32.43,0.74,8.73,1.64
299089,-6.19,-3.92,29.35,0.65,8.73,1.56
299124,-6.24,-3.51,26.30,0.52,8.73,1.45
299159,-5.70,2.42,24.08,0.54,8.73,1.26
299194,-2.27,1.72,20.52,0.81,8.73,1.21
299229,-0.63,1.89,18.50,0.99,8.73,1.07
299264,2.02,0.21,18.61,1.17,8.73,1.25
299299,7.54,-1.01,19.02,1.38,8.73,1.37
299335,11.39,-3.25,20.68,1.37,8.73,1.57
299369,12.17,-4.29,22.79,1.46,8.73,1.68
299404,13.13,-4.75,25.51,1.30,8.73,1.82
299439,11.94,-7.23,28.39,1.22,8.73,1.83
299474,10.78,-7.47,32.32,1.01,8.73,1.82
299509,8.79,-7.86,34.94,1.00,8.73,1.73
299544,5.33,-7.91,35.65,0.94,8.73,1.62
299579,2.01,-7.46,35.71,1.05,8.73,1.58
299614,-1.16,-8.08,35.00,1.05,8.73,1.73
299649,-3.61,-4.42,34.27,1.06,8.73,1.77
299684,-6.85,-7.15,32.15,1.05,8.73,1.86
299719,-6.62,-5.46,28.99,1.00,8.73,1.83
299754,-5.85,-6.10,25.49,0.96,8.73,1.88
299790,-5.79,-1.92,22.39,0.95,8.73,1.90
299825,-3.87,-5.50,18.58,1.06,8.73,2.01
299859,0.03,-4.36,17.63,0.98,8.73,2.00
299894,4.22,-5.88,17.94,0.92,8.73,2.09
299929,7.72,-1.17,19.25,0.93,8.73,1.97
299965,11.21,-6.31,19.97,1.04,8.73,1.96
299999,12.89,-2.86,24.03,1.11,8.73,1.89
300034,12.77,-6.68,25.65,1.25,8.73,2.05
300069,12.73,-5.28,28.63,1.21,8.73,2.15
300104,10.43,-9.57,31.48,1.12,8.73,2.28
300139,7.84,-9.61,34.28,0.95,8.73,2.34
300174,5.58,-8.75,36.53,0.82,8.73,2.36
300209,1.41,-7.84,36.07,0.62,8.73,2.28
300244,-1.34,-7.51,35.90,0.50,8.73,2.14
300279,-4.64,-5.74,33.86,0.38,8.73,1.99
300315,-5.45,-5.23,30.97,0.33,8.73,1.83
300349,-6.34,-3.51,28.43,0.24,8.73,1.64
300385,-6.26,-1.26,25.41,0.22,8.73,1.40
300419,-4.40,1.50,22.09,0.37,8.73,1.12
300454,-2.30,2.10,19.77,0.60,8.73,0.96
300489,0.84,2.99,19.12,0.92,8.73,0.92
300524,5.54,-0.92,17.81,1.13,8.73,1.09
300559,8.03,-3.18,19.90,1.23,8.73,1.37
300594,12.23,-3.68,22.27,1.24,8.73,1.56
300629,13.01,-5.01,26.48,1.23,8.73,1.68
300664,12.61,-6.92,29.73,1.19,8.73,1.76
300699,11.42,-7.24,32.28,1.18,8.73,1.82
300734,9.31,-8.34,34.50,1.16,8.73,1.89
300769,6.74,-7.16,36.15,1.09,8.73,2.03
300804,2.58,-8.73,36.41,0.99,8.73,2.13
300839,0.43,-8.74,37.35,0.94,8.73,2.20
300874,-4.54,-8.62,35.16,0.82,8.73,2.19
300909,-5.25,-6.11,33.21,0.78,8.73,2.15
300944,-6.15,-6.15,28.79,0.79,8.73,2.11
300979,-5.56,-6.52,25.89,0.81,8.73,2.09
301014,-5.29,-6.62,22.19,0.79,8.73,2.18
301049,-1.91,-5.66,18.88,0.75,8.73,2.19
301089,2.00,-5.93,15.87,0.65,8.73,2.07
301124,4.08,-4.07,15.84,0.50,8.73,1.99
301159,6.81,-3.35,16.54,0.53,8.73,1.89
301194,10.10,-6.61,18.44,0.41,8.73,1.83
301229,11.88,-3.72,22.61,0.46,8.73,1.67
301264,12.51,-3.18,26.17,0.62,8.73,1.59
301299,12.04,-5.02,28.63,0.77,8.73,1.63
301334,10.35,-3.23,31.29,0.92,8.73,1.67
301369,7.81,-7.38,32.71,1.01,8.73,1.82
301404,5.05,-7.30,34.51,0.94,8.73,2.04
301439,1.91,-7.75,34.92,0.84,8.73,2.21
301474,-0.99,-5.69,35.14,0.57,8.73,2.27
301509,-4.49,-4.09,32.67,0.57,8.73,2.12
301544,-5.42,-4.07,30.28,0.63,8.73,1.99
301579,-6.99,-3.94,27.58,0.83,8.73,1.96
301614,-6.82,-5.95,23.71,0.97,8.73,2.08
301649,-5.61,-5.88,20.82,0.97,8.73,2.24
301684,-3.00,-5.55,18.23,0.93,8.73,2.39
301719,-0.30,-6.85,15.40,0.81,8.73,2.40
301754,2.18,-3.97,14.48,0.59,8.73,2.27
301789,6.37,-5.50,15.44,0.58,8.73,2.09
301824,10.52,-4.36,17.30,0.44,8.73,1.99
301859,12.19,-4.29,19.49,0.52,8.73,1.85
301894,12.09,-3.18,23.70,0.57,8.73,1.76
301929,11.82,-4.01,26.76,0.64,8.73,1.69
301964,10.33,-3.51,30.47,0.80,8.73,1.63
301999,8.82,-5.66,33.05,0.83,8.73,1.61
302034,6.18,-4.61,35.08,0.88,8.73,1.58
302069,3.02,-5.71,35.88,1.04,8.73,1.53
302104,0.50,-5.90,36.07,1.15,8.73,1.56
302139,-4.21,-5.41,34.36,1.32,8.73,1.58
302174,-5.26,-3.64,31.98,1.37,8.73,1.70
302209,-5.96,-6.18,27.10,1.37,8.73,1.83
302244,-6.58,-4.79,23.48,1.35,8.73,2.00
302279,-6.60,-5.74,20.76,1.34,8.73,2.18
302315,-4.11,-5.70,17.91,1.20,8.73,2.37
302349,-1.01,-7.70,15.98,1.02,8.73,2.46
302384,3.11,-7.16,15.83,0.75,8.73,2.50
302419,6.89,-6.16,15.41,0.62,8.73,2.35
302454,9.19,-5.16,17.59,0.45,8.73,2.22
302489,10.93,-4.24,19.94,0.47,8.73,2.05
302524,12.19,-5.65,23.76,0.34,8.73,1.94
302559,11.99,-3.89,27.84,0.34,8.73,1.77
302594,11.86,-5.24,31.43,0.39,8.73,1.67
302629,9.35,-3.32,34.37,0.50,8.73,1.56
302664,6.32,-5.29,34.91,0.63,8.73,1.69
302699,3.35,-4.77,36.08,0.71,8.73,1.85
302734,0.04,-6.22,35.18,0.53,8.73,1.97
302769,-1.63,-3.13,32.96,0.37,8.73,1.92
302804,-4.25,-1.22,29.62,0.44,8.73,1.71
302839,-6.79,-0.58,26.63,0.67,8.73,1.57
302874,-7.50,-1.41,24.00,0.94,8.73,1.62
302909,-6.64,-2.71,21.37,1.10,8.73,1.77
302944,-3.16,-3.91,17.79,1.17,8.73,2.02
302979,-1.29,-4.63,14.99,1.15,8.73,2.20
303014,1.39,-6.01,14.78,1.02,8.73,2.25
303049,5.19,-4.59,14.88,0.92,8.73,2.20
303084,7.25,-3.92,16.05,0.86,8.73,2.12
303124,10.80,-4.51,16.94,0.79,8.73,2.06
303159,12.31,-4.48,21.61,0.78,8.73,2.08
303194,12.44,-6.87,25.52,0.72,8.73,2.01
303229,11.57,-6.69,28.68,0.67,8.73,1.93
303264,10.55,-6.87,30.98,0.63,8.73,1.80
303299,6.91,-7.71,32.11,0.58,8.73,1.71
303334,4.77,-5.12,33.60,0.53,8.73,1.54
303368,1.32,-5.08,34.60,0.62,8.73,1.42
303403,-1.86,-6.12,33.46,0.63,8.73,1.40
303438,-4.19,-3.82,32.04,0.57,8.73,1.35
303473,-4.89,-3.11,27.38,0.49,8.73,1.29
303508,-6.51,-2.41,23.95,0.35,8.73,1.13
303543,-7.10,2.50,22.22,0.07,8.73,0.70
303578,-5.98,7.94,21.52,0.12,8.73,0.17
303614,-5.16,9.41,20.22,0.51,8.73,-0.13
303648,-1.67,8.97,18.97,1.08,8.73,-0.10
303683,2.19,4.59,17.68,1.60,8.73,0.31
303718,5.48,0.25,18.42,1.87,8.73,0.85
303753,11.97,-3.52,19.35,1.83,8.73,1.31
303788,13.10,-7.67,21.08,1.75,8.73,1.68
303823,13.39,-5.40,24.82,1.70,8.73,1.90
303858,10.83,-7.05,29.61,1.71,8.73,2.24
303893,10.20,-9.46,31.65,1.66,8.73,2.75
303928,8.09,-14.86,34.32,1.46,8.73,3.24
303962,5.43,-14.36,37.92,1.06,8.73,3.54
303997,1.91,-10.33,40.98,0.46,8.73,3.27
304032,-3.31,-7.13,41.96,0.42,8.73,2.62
304067,-5.71,-7.38,37.91,0.54,8.73,2.27
304102,-5.04,-7.50,32.95,0.45,8.73,2.10
304137,-1.69,-4.10,27.02,0.30,8.73,1.74
304172,-3.26,-2.14,23.81,0.17,8.73,1.39
304207,-3.49,0.40,22.77,0.41,8.73,1.04
304242,-2.19,2.44,20.89,0.72,8.73,0.98
304277,4.16,0.04,21.98,1.02,8.73,1.18
304313,8.53,-1.67,23.01,1.18,8.73,1.46
304347,13.13,-6.47,24.24,1.32,8.73,1.64
304382,13.06,-5.31,28.59,1.48,8.73,1.74
304417,13.80,-7.04,31.40,1.48,8.73,2.01
304452,11.74,-10.32,34.17,1.62,8.73,2.37
304487,8.79,-10.11,37.05,1.41,8.73,2.63
304522,7.42,-10.99,38.51,1.15,8.73,2.86
304557,2.16,-12.60,38.97,0.71,8.73,2.90
304592,-0.79,-11.34,37.61,0.53,8.73,2.71
304627,-3.67,-9.27,35.90,0.29,8.73,2.45
304662,-6.62,-6.06,32.56,0.25,8.73,2.18
304697,-5.76,-7.17,28.50,0.08,8.73,1.91
304732,-6.10,-1.56,25.46,0.02,8.73,1.42
304767,-10.22,4.66,25.95,0.34,8.73,1.09
304802,-6.39,2.98,22.69,0.68,8.73,1.01
304837,0.13,1.52,23.31,1.11,8.73,0.88
304872,10.20,1.32,25.24,1.45,8.73,1.04
304907,13.69,0.61,25.83,1.76,8.73,1.27
304942,13.59,-3.47,26.91,2.05,8.73,1.59
304977,13.66,-6.33,29.34,2.24,8.73,2.04
305012,12.38,-11.21,33.38,2.15,8.73,2.52
305047,11.33,-15.11,38.58,1.75,8.73,2.88
305082,8.58,-15.47,41.34,1.41,8.73,3.05
305117,2.56,-13.21,43.12,0.84,8.73,3.08
305157,-1.10,-12.84,42.94,0.58,8.73,2.87
305192,-3.89,-9.93,39.34,0.29,8.73,2.60
305227,-6.06,-5.51,36.02,0.12,8.73,2.31
305262,-3.17,-4.21,30.81,-0.07,8.73,1.90
305297,-5.09,0.89,27.82,-0.03,8.73,1.39
305332,-4.66,1.63,25.23,0.34,8.73,1.15
305368,0.78,2.55,24.35,0.78,8.73,1.12
305402,5.48,0.07,23.72,1.09,8.73,1.22
305437,10.39,-0.56,25.56,1.42,8.73,1.35
305472,11.41,-1.73,27.93,1.82,8.73,1.53
305507,12.18,-3.64,31.54,2.06,8.73,1.86
305542,14.33,-7.61,34.88,2.26,8.73,2.38
305577,12.17,-9.66,39.35,2.24,8.73,3.02
305611,7.59,-15.41,42.47,1.89,8.73,3.56
305646,6.99,-14.92,46.33,1.26,8.73,3.64
305681,1.25,-15.61,47.12,0.74,8.73,3.44
305716,-3.34,-10.01,45.16,0.38,8.73,3.13
305751,-4.69,-6.87,40.14,0.34,8.73,2.76
305786,-6.41,-5.83,36.86,0.29,8.73,2.42
305821,-6.54,-3.80,33.00,0.31,8.73,2.07
305856,-0.76,-3.51,28.63,0.47,8.73,1.89
305891,5.18,-2.73,26.04,0.64,8.73,1.59
305926,8.06,0.54,25.59,0.93,8.73,1.31
305961,10.03,1.33,25.65,1.27,8.73,1.34
305996,12.32,-0.41,27.21,1.51,8.73,1.49
306031,14.01,-7.29,31.48,1.72,8.73,1.77
306066,13.92,-9.56,36.03,1.67,8.73,2.09
306101,11.61,-10.26,39.30,1.58,8.73,2.39
306136,9.06,-13.90,40.65,1.42,8.73,2.64
306171,4.03,-13.82,41.41,1.21,8.73,2.88
306206,0.40,-14.71,41.44,0.85,8.73,2.94
306241,-3.35,-11.08,42.37,0.55,8.73,2.83
306276,-6.26,-7.57,41.36,0.42,8.73,2.57
306311,-5.17,-7.72,36.06,0.44,8.73,2.38
306346,-3.13,-6.42,30.60,0.54,8.73,2.13
306381,-0.93,-3.85,25.30,0.50,8.73,1.91
306416,2.44,-2.18,22.54,0.59,8.73,1.62
306451,4.49,-0.79,21.79,0.81,8.73,1.35
306486,6.65,1.80,21.24,1.07,8.73,1.27
306521,8.59,0.52,22.87,1.44,8.73,1.33
306556,11.43,-1.53,26.14,1.74,8.73,1.49
306591,13.02,-6.57,30.27,2.01,8.73,1.80
306626,12.98,-6.82,35.00,1.97,8.73,2.09
306661,11.74,-11.06,37.92,1.76,8.73,2.33
306696,8.25,-11.55,39.95,1.57,8.73,2.51
306731,4.48,-11.30,40.83,1.31,8.73,2.61
306766,0.63,-12.08,40.74,1.05,8.73,2.61
306802,-2.82,-9.35,39.32,0.87,8.73,2.57
306836,-4.27,-7.41,36.01,0.59,8.73,2.46
306871,-6.63,-8.08,31.85,0.51,8.73,2.31
306906,-5.13,-5.65,27.83,0.39,8.73,2.17
306941,-4.20,-3.88,24.75,0.44,8.73,1.98
306976,-2.56,-4.60,21.96,0.49,8.73,1.91
307011,0.45,-3.26,20.31,0.52,8.73,1.89
307046,6.58,-6.36,20.86,0.51,8.73,1.91
307081,8.63,-5.24,21.54,0.43,8.73,1.94
307116,11.46,-8.00,23.07,0.41,8.73,1.84
307151,12.75,-5.21,26.85,0.43,8.73,1.66
307191,13.06,-4.32,30.36,0.57,8.73,1.51
307226,11.17,-6.41,33.35,0.81,8.73,1.55
307261,9.46,-5.35,36.46,1.01,8.73,1.63
307296,6.69,-6.10,38.51,1.08,8.73,1.74
307331,3.29,-7.38,38.94,1.11,8.73,1.80
307366,-0.46,-6.85,38.41,1.22,8.73,1.78
307401,-3.35,-5.24,36.21,1.22,8.73,1.77
307436,-5.03,-5.76,32.56,1.35,8.73,1.83
307471,-6.07,-6.45,29.56,1.24,8.73,1.90
307506,-6.54,-7.18,25.65,1.12,8.73,1.90
307541,-5.60,-1.61,24.32,0.94,8.73,1.80
307576,-2.96,-1.32,21.58,0.93,8.73,1.61
307612,2.29,0.31,20.08,1.04,8.73,1.38
307646,6.18,2.02,19.95,1.24,8.73,1.31
307681,9.22,1.81,21.56,1.53,8.73,1.32
307716,11.03,-2.63,23.05,1.84,8.73,1.50
307751,11.84,-4.50,25.51,1.79,8.73,1.78
307786,11.62,-7.73,29.44,1.66,8.73,2.06
307821,11.60,-8.30,33.29,1.47,8.73,2.19
307856,10.47,-8.48,37.11,1.27,8.73,2.18
307891,7.35,-8.32,39.12,1.15,8.73,2.23
307926,3.85,-9.07,39.17,1.07,8.73,2.21
307961,-0.10,-8.40,39.21,1.02,8.73,2.24
307997,-3.07,-8.27,37.93,0.99,8.73,2.20
308031,-4.83,-5.16,34.65,0.98,8.73,2.15
308066,-5.50,-6.06,30.03,1.03,8.73,2.14
308101,-6.73,-7.15,25.82,1.10,8.73,2.19
308136,-3.83,-5.48,23.53,1.02,8.73,2.28
308171,-3.49,-7.22,20.35,0.93,8.73,2.31
308206,-0.11,-6.50,19.08,0.84,8.73,2.29
308241,5.06,-3.91,20.13,0.80,8.73,2.16
308276,7.21,-4.05,21.02,0.71,8.73,2.03
308311,10.68,-6.17,23.27,0.84,8.73,1.97
308347,12.71,-5.13,26.84,0.86,8.73,1.84
308381,12.87,-7.92,30.43,0.77,8.73,1.85
308416,12.39,-7.50,34.26,0.85,8.73,1.77
308451,10.54,-4.90,37.46,0.82,8.73,1.69
308486,7.67,-5.57,38.31,0.87,8.73,1.77
308521,3.67,-7.28,38.19,0.97,8.73,1.78
308556,0.11,-6.76,39.02,0.91,8.73,1.90
308591,-3.35,-7.22,36.93,1.00,8.73,1.88
308626,-5.10,-5.94,33.92,0.92,8.73,1.88
308661,-7.02,-4.52,30.89,0.86,8.73,1.93
308696,-5.95,-2.55,27.57,0.86,8.73,1.82
308731,-4.82,-2.99,24.16,0.74,8.73,1.79
308766,-4.55,0.19,21.69,0.91,8.73,1.74
308801,-0.28,-2.06,19.59,0.96,8.73,1.73
308836,4.56,-1.34,20.20,0.95,8.73,1.81
308871,7.53,-6.19,20.02,1.04,8.73,1.87
308906,10.82,-2.53,23.17,0.98,8.73,1.91
308941,12.37,-8.02,25.90,0.96,8.73,2.00
308976,13.19,-6.23,29.64,0.96,8.73,1.92
309011,12.32,-7.66,32.52,0.88,8.73,2.01
309046,10.25,-7.48,35.15,0.96,8.73,2.06
309081,7.78,-6.55,37.65,0.89,8.73,2.05
309116,4.22,-7.87,37.86,0.83,8.73,2.08
309151,0.69,-5.92,37.70,0.77,8.73,2.03
309186,-2.40,-7.52,35.68,0.70,8.73,1.99
309226,-4.62,-7.73,32.40,0.66,8.73,1.94
309261,-7.26,-4.47,30.92,0.68,8.73,1.86
309296,-7.35,-2.11,28.14,0.63,8.73,1.81
309331,-5.61,-4.50,23.52,0.76,8.73,1.75
309367,-4.35,-2.94,20.06,0.83,8.73,1.81
309401,-0.12,-2.82,18.92,0.86,8.73,1.88
309436,4.85,-6.74,19.59,0.84,8.73,1.97
309471,7.62,-1.37,20.62,0.81,8.73,1.93
309506,10.50,-5.05,22.25,0.90,8.73,1.91
309541,12.27,-4.29,24.96,0.99,8.73,1.82
309576,13.26,-5.52,28.08,1.01,8.73,1.88
309611,11.73,-6.18,31.68,1.19,8.73,1.92
309646,10.86,-6.93,34.33,1.08,8.73,1.96
309681,7.27,-7.98,36.15,1.11,8.73,2.01
309716,4.87,-7.05,37.11,1.05,8.73,2.00
309751,1.03,-8.48,36.95,1.04,8.73,2.00
309786,-1.76,-3.47,35.68,1.03,8.73,1.92
309821,-5.73,-3.88,36.62,1.24,8.73,1.84
309856,-4.08,-6.18,29.34,1.31,8.73,1.91
309891,-6.73,-8.57,25.59,1.17,8.73,1.90
309926,-4.83,-2.22,24.07,0.99,8.73,1.93
309961,-2.95,-5.33,20.16,0.97,8.73,1.88
309996,1.09,-2.13,18.39,0.92,8.73,1.71
310031,2.09,-2.03,17.22,0.93,8.73,1.65
310066,4.79,-1.15,16.92,1.07,8.73,1.58
310101,7.85,-7.51,17.43,0.96,8.73,1.79
310136,10.67,-3.67,20.51,0.84,8.73,1.83
310171,12.18,-6.03,23.83,0.81,8.73,1.86
310206,12.66,-4.50,28.05,0.77,8.73,1.72
310241,12.14,-8.07,30.20,0.86,8.73,1.69
310276,10.67,-5.39,33.47,0.77,8.73,1.60
310311,7.14,-5.99,35.73,0.91,8.73,1.65
310346,4.22,-5.84,37.13,0.93,8.73,1.69
310381,0.36,-6.62,36.80,0.99,8.73,1.76
310416,-2.46,-6.74,35.53,0.86,8.73,1.83
310451,-5.20,-2.97,33.63,0.90,8.73,1.83
310486,-6.61,-5.45,30.51,0.94,8.73,1.86
310521,-5.48,-4.79,26.19,0.97,8.73,1.80
310556,-4.63,-5.32,22.69,0.93,8.73,1.87
310591,-2.37,-1.11,20.50,0.99,8.73,1.92
310626,0.97,-3.41,17.55,0.95,8.73,1.87
310661,4.19,-2.70,17.60,0.96,8.73,1.79
310696,7.22,-4.28,16.78,0.90,8.73,1.85
310731,9.89,-0.92,18.73,0.91,8.73,1.80
310766,10.97,-6.20,19.87,1.00,8.73,1.81
310801,12.77,-5.66,23.23,0.85,8.73,1.77
310836,12.74,-7.40,25.69,0.84,8.73,1.73
310871,11.72,-4.50,29.65,0.78,8.73,1.81
310906,9.66,-5.42,32.80,0.83,8.73,1.73
310941,7.49,-6.88,35.29,0.84,8.73,1.93
310976,3.85,-5.83,36.97,0.80,8.73,1.89
311011,0.40,-7.87,36.19,0.73,8.73,1.96
311046,-2.41,-6.05,34.43,0.55,8.73,1.95
311081,-5.01,-2.63,32.22,0.53,8.73,1.89
311116,-5.28,-3.53,28.14,0.53,8.73,1.76
311151,-5.38,-2.26,24.92,0.65,8.73,1.62
311186,-7.70,-4.06,21.99,0.77,8.73,1.65
311221,-4.28,-0.50,19.52,0.85,8.73,1.73
311261,-0.43,-2.35,16.99,0.91,8.73,1.74
311296,2.96,-4.23,16.04,0.97,8.73,1.72
311331,7.08,-1.19,16.46,0.99,8.73,1.63
311366,9.30,-0.24,18.44,1.17,8.73,1.61
311401,10.06,-4.37,19.46,1.29,8.73,1.68
311436,11.43,-4.42,22.77,1.35,8.73,1.74
311471,11.68,-5.65,27.07,1.38,8.73,1.87
311506,12.09,-6.69,30.52,1.30,8.73,1.99
311541,9.92,-5.35,33.49,1.26,8.73,1.98
311576,7.42,-7.01,34.89,1.13,8.73,1.92
311611,4.30,-5.85,36.57,1.16,8.73,1.77
311646,-0.58,-7.98,35.37,1.32,8.73,1.70
311681,-2.43,-5.21,33.21,1.50,8.73,1.65
311716,-4.48,-5.13,30.40,1.72,8.73,1.77
311751,-6.71,-7.86,26.97,1.78,8.73,2.00
311786,-7.75,-8.87,24.17,1.54,8.73,2.14
311821,-7.14,-8.67,21.17,1.22,8.73,2.14
311856,-2.89,-4.97,18.46,0.93,8.73,1.98
311891,-0.44,-1.68,17.63,0.84,8.73,1.75
311926,2.07,-3.00,15.87,0.85,8.73,1.76
311961,5.50,-2.52,15.89,0.84,8.73,1.76
311996,7.61,-5.98,16.35,0.77,8.73,1.84
312031,9.85,-5.64,18.36,0.56,8.73,1.87
312066,11.55,-5.24,21.99,0.51,8.73,1.75
312101,12.80,-5.58,25.34,0.53,8.73,1.66
312136,12.22,-4.00,29.78,0.63,8.73,1.60
312171,9.79,-5.31,33.03,0.79,8.73,1.59
312206,8.19,-5.30,35.06,0.87,8.73,1.69
312241,4.26,-5.51,35.77,0.94,8.73,1.64
312276,0.85,-3.87,35.71,0.95,8.73,1.62
312311,-1.32,-3.30,34.50,1.06,8.73,1.54
312346,-5.16,-3.69,33.25,1.17,8.73,1.64
312381,-6.42,-5.23,29.75,1.14,8.73,1.68
312416,-6.21,-3.69,26.16,1.07,8.73,1.74
312451,-5.50,-3.73,22.38,1.05,8.73,1.82
312486,-4.52,-1.70,20.57,1.07,8.73,1.86
312521,-3.73,-4.20,17.47,1.03,8.73,1.94
312556,0.28,-4.95,17.01,1.01,8.73,2.01
312591,5.82,-4.53,17.39,0.89,8.73,2.13
312626,8.01,-2.38,19.22,0.85,8.73,2.09
312661,10.04,-7.68,20.22,0.83,8.73,2.08
312696,12.27,-4.74,24.54,0.72,8.73,1.98
312731,13.22,-7.13,26.92,0.78,8.73,1.96
312766,12.63,-4.33,30.87,0.75,8.73,1.92
312801,10.39,-6.72,33.16,0.81,8.73,1.88
312836,7.52,-5.96,34.89,0.76,8.73,1.88
312871,4.47,-5.89,36.02,0.79,8.73,1.85
312906,1.20,-6.10,36.95,0.73,8.73,1.85
312941,-2.41,-4.96,35.25,0.74,8.73,1.82
312977,-4.38,-5.08,32.07,0.75,8.73,1.78
313011,-3.84,-4.31,27.32,0.78,8.73,1.69
313046,-6.15,-3.27,25.57,0.74,8.73,1.59
313081,-7.60,-1.69,23.33,0.72,8.73,1.53
313116,-5.32,0.53,21.57,0.88,8.73,1.41
313151,-1.81,-0.85,18.39,0.95,8.73,1.36
313186,2.29,0.14,17.24,1.12,8.73,1.32
313221,7.42,-0.97,17.29,1.20,8.73,1.44
313256,8.53,-1.04,18.73,1.30,8.73,1.50
313296,10.68,-1.16,19.92,1.32,8.73,1.61
313331,11.74,-6.28,22.42,1.30,8.73,1.75
313366,13.90,-5.22,26.37,1.15,8.73,1.78
313401,12.30,-7.59,30.17,1.12,8.73,1.78
313436,9.02,-6.91,32.94,1.02,8.73,1.75
313471,7.66,-5.09,35.24,1.00,8.73,1.71
313506,3.35,-7.40,36.90,1.01,8.73,1.76
313541,1.09,-5.67,35.42,1.09,8.73,1.72
313576,-2.61,-6.97,33.56,1.17,8.73,1.76
313611,-5.65,-5.80,32.08,1.02,8.73,1.82
313646,-6.57,-5.54,29.12,1.09,8.73,1.84
313681,-6.60,-6.15,25.95,1.00,8.73,1.93
313716,-5.89,-2.79,22.79,0.97,8.73,1.91
313751,-3.20,-5.50,19.22,0.95,8.73,1.94
313786,0.98,-3.95,16.93,0.79,8.73,1.87
313821,2.73,-5.38,16.59,0.81,8.73,1.94
313856,7.31,-2.48,17.94,0.70,8.73,1.93
313891,9.29,-6.12,18.91,0.74,8.73,1.92
313926,10.34,-8.01,19.97,0.52,8.73,1.89
313961,12.40,-3.46,24.29,0.46,8.73,1.76
313996,13.21,-6.35,26.06,0.49,8.73,1.69
314031,12.09,-3.58,29.63,0.62,8.73,1.64
314066,10.47,-5.71,31.53,0.78,8.73,1.70
314101,7.73,-5.11,34.88,0.78,8.73,1.86
314136,4.87,-5.94,35.42,0.80,8.73,1.98
314171,1.14,-7.19,34.99,0.63,8.73,2.08
314206,-1.82,-5.82,33.83,0.38,8.73,2.08
314241,-5.95,-2.26,33.19,0.27,8.73,2.03
314276,-6.51,-2.52,31.05,0.19,8.73,1.82
314311,-5.59,-2.18,26.62,0.27,8.73,1.68
314347,-5.23,-1.55,22.40,0.34,8.73,1.60
314381,-5.02,0.42,19.91,0.59,8.73,1.62
314416,-3.32,-3.53,17.75,0.66,8.73,1.81
314451,0.12,-3.03,17.23,0.67,8.73,1.96
314486,5.27,-7.51,16.47,0.58,8.73,2.12
314521,8.52,-6.18,17.22,0.36,8.73,2.08
314556,12.31,-4.01,20.02,0.37,8.73,1.93
314591,12.99,-6.51,23.14,0.33,8.73,1.78
314626,12.38,-4.29,25.78,0.30,8.73,1.55
314661,11.26,-4.72,28.21,0.49,8.73,1.48
314696,11.06,-5.43,31.28,0.55,8.73,1.40
314731,8.22,-4.20,35.23,0.78,8.73,1.29
314766,5.55,-5.12,36.69,0.90,8.73,1.36
314801,1.27,-4.79,36.55,1.13,8.73,1.42
314836,-1.60,-7.75,35.31,1.22,8.73,1.52
314871,-4.40,-3.61,34.17,1.37,8.73,1.58
314906,-6.20,-5.61,29.58,1.57,8.73,1.71
314941,-6.66,-5.66,26.25,1.56,8.73,1.83
314976,-7.60,-5.78,23.52,1.39,8.73,1.95
315011,-4.06,-2.71,21.25,1.27,8.73,1.91
315046,-2.12,-2.50,18.86,1.18,8.73,1.75
315081,2.05,-0.17,18.44,1.23,8.73,1.49
315116,7.08,0.25,17.73,1.31,8.73,1.50
315151,9.57,0.90,19.24,1.44,8.73,1.55
315186,11.81,-5.19,20.14,1.49,8.73,1.68
315221,13.24,-5.13,22.55,1.37,8.73,1.79
315256,12.25,-2.91,25.77,1.29,8.73,1.89
315291,11.58,-9.11,28.14,1.13,8.73,1.93
315330,10.67,-7.14,32.05,1.03,8.73,1.93
315365,7.39,-6.50,34.62,0.96,8.73,1.89
315399,4.81,-5.43,35.83,0.95,8.73,1.86
315434,1.07,-7.10,35.74,0.90,8.73,1.90
315469,-2.30,-3.38,35.36,0.87,8.73,1.85
315504,-5.20,-5.54,32.42,0.92,8.73,1.85
315539,-5.21,-4.19,29.10,0.99,8.73,1.84
315574,-5.05,-4.93,24.52,0.97,8.73,1.85
315609,-6.71,-6.03,21.57,0.94,8.73,1.90
315644,-5.15,-1.99,19.48,0.85,8.73,1.98
315679,-3.77,-5.07,17.42,0.92,8.73,2.11
315714,0.92,-4.18,15.95,0.76,8.73,2.14
315748,2.68,-5.31,14.77,0.67,8.73,2.17
315783,6.52,-8.45,16.94,0.50,8.73,2.14
315818,10.84,-5.45,19.97,0.29,8.73,2.02
315853,12.55,-7.10,21.64,0.12,8.73,1.86
315888,11.85,-7.55,25.22,-0.03,8.73,1.61
315923,12.17,-5.81,28.41,0.08,8.73,1.35
315958,11.08,-3.67,32.28,0.28,8.73,1.25
315993,7.81,-3.61,35.35,0.56,8.73,1.31
316027,5.38,-6.19,36.45,0.66,8.73,1.46
316061,1.39,-4.37,36.40,0.77,8.73,1.51
316097,-1.51,-4.87,34.08,0.76,8.73,1.52
316131,-4.30,-4.76,32.23,0.63,8.73,1.53
316166,-5.97,-3.66,29.23,0.59,8.73,1.50
316201,-5.42,-2.34,25.91,0.47,8.73,1.44
316236,-5.29,1.70,23.08,0.42,8.73,1.27
316271,-5.29,4.89,20.64,0.54,8.73,1.07
316307,-5.38,0.82,17.47,0.83,8.73,1.09
316341,-1.35,2.32,17.07,0.97,8.73,1.12
316377,1.94,0.14,15.57,1.18,8.73,1.32
316411,4.26,-1.77,14.93,1.22,8.73,1.47
316446,9.03,0.53,18.04,1.30,8.73,1.58
316481,11.11,-1.21,21.58,1.49,8.73,1.70
316516,13.11,-4.06,24.18,1.55,8.73,1.86
316551,13.34,-3.78,27.45,1.60,8.73,2.01
316586,10.98,-8.09,30.18,1.59,8.73,2.25
316621,8.59,-7.26,32.93,1.35,8.73,2.34
316656,6.85,-7.34,34.40,1.21,8.73,2.20
316691,3.26,-7.37,34.93,1.10,8.73,1.94
316726,-0.03,-4.99,34.98,1.14,8.73,1.75
316761,-3.38,-6.53,33.17,1.26,8.73,1.75
316796,-5.38,-6.72,30.03,1.19,8.73,1.85
316831,-5.30,-4.93,25.88,1.07,8.73,1.86
316866,-6.49,-5.58,22.90,1.01,8.73,1.88
316901,-7.06,-4.18,20.64,0.84,8.73,1.89
316937,-3.71,-1.47,18.34,0.81,8.73,1.85
316971,0.24,-3.62,15.77,0.82,8.73,1.83
317006,3.41,-3.74,14.96,0.70,8.73,1.83
317041,6.44,-2.94,15.00,0.68,8.73,1.80
317076,7.85,-5.08,15.68,0.59,8.73,1.78
317111,9.58,-7.26,17.01,0.43,8.73,1.73
317146,12.09,-4.43,21.24,0.36,8.73,1.59
317181,12.27,-4.87,25.19,0.43,8.73,1.45
317216,12.33,-4.85,28.02,0.48,8.73,1.34
317251,11.18,-4.52,30.91,0.59,8.73,1.19
317286,7.44,-4.07,32.96,0.84,8.73,1.15
317322,5.31,-4.55,34.78,0.95,8.73,1.27
317361,0.76,-4.80,34.94,1.11,8.73,1.40
317396,-1.13,-4.42,32.84,1.12,8.73,1.48
317431,-4.31,-3.74,30.84,1.19,8.73,1.56
317466,-6.29,-3.47,29.19,1.31,8.73,1.66
317501,-6.56,-4.59,24.52,1.31,8.73,1.78
317536,-7.24,-3.62,21.39,1.26,8.73,1.83
317571,-5.97,-2.94,19.05,1.18,8.73,1.91
317606,-3.72,-4.38,16.98,1.11,8.73,1.92
317641,-0.21,-2.40,15.08,1.01,8.73,1.86
317676,3.98,-4.98,14.88,0.94,8.73,1.95
317711,6.38,-5.25,14.44,0.83,8.73,1.99
317746,9.60,-5.15,15.15,0.67,8.73,2.03
317781,10.74,-5.96,18.72,0.52,8.73,2.00
317816,12.71,-5.00,22.26,0.40,8.73,1.89
317851,12.40,-3.93,26.42,0.35,8.73,1.72
317886,10.80,-3.65,29.01,0.36,8.73,1.57
317921,9.31,-4.52,30.77,0.46,8.73,1.48
317956,7.35,-4.88,32.24,0.52,8.73,1.59
317991,3.84,-5.45,33.44,0.58,8.73,1.67
318026,0.35,-4.13,33.74,0.51,8.73,1.68
318061,-2.35,-3.34,32.10,0.49,8.73,1.61
318096,-4.91,-2.31,30.35,0.53,8.73,1.53
318131,-6.32,-2.22,27.45,0.62,8.73,1.43
318166,-5.62,-0.29,23.65,0.70,8.73,1.34
318201,-5.60,-0.82,20.47,0.85,8.73,1.28
318236,-5.23,-1.71,17.68,0.95,8.73,1.29
318271,-3.64,-0.34,15.52,1.03,8.73,1.30
318306,0.48,1.45,14.41,1.18,8.73,1.25
318341,1.68,1.12,13.78,1.31,8.73,1.34
318377,4.42,-1.38,12.72,1.44,8.73,1.45
318411,8.81,-2.63,14.64,1.49,8.73,1.62
318446,10.50,-3.35,18.32,1.59,8.73,1.78
318481,12.63,-3.43,21.20,1.60,8.73,1.99
318516,12.10,-5.93,24.32,1.63,8.73,2.23
318551,10.88,-5.99,27.14,1.53,8.73,2.48
318586,9.83,-9.33,29.32,1.30,8.73,2.63
318621,7.32,-9.63,31.47,1.03,8.73,2.85
318656,4.29,-8.33,33.34,0.75,8.73,2.75
318691,0.51,-9.45,32.77,0.47,8.73,2.57
318726,-3.04,-7.42,33.28,0.27,8.73,2.32
318761,-5.50,-6.89,31.94,0.13,8.73,2.07
318796,-7.62,-5.49,29.38,0.14,8.73,1.85
318831,-7.33,-1.81,27.24,0.14,8.73,1.63
318866,-7.62,-1.49,22.78,0.23,8.73,1.35
318901,-5.88,0.79,18.84,0.37,8.73,1.17
318936,-2.54,0.34,17.17,0.63,8.73,1.03
318971,2.68,2.35,17.15,0.91,8.73,0.93
319006,5.01,5.25,17.81,1.22,8.73,0.90
319041,7.22,0.78,17.65,1.59,8.73,1.06
319076,11.55,-0.78,19.71,1.89,8.73,1.30
319111,13.40,-5.96,22.49,1.97,8.73,1.67
319146,13.20,-6.11,25.11,1.91,8.73,1.92
319181,11.35,-9.51,28.03,1.84,8.73,2.26
319216,10.41,-8.69,32.33,1.64,8.73,2.56
319251,5.94,-12.03,33.92,1.38,8.73,2.75
319286,4.81,-10.99,36.96,1.04,8.73,2.80
319322,0.15,-12.09,37.82,0.82,8.73,2.71
319356,-2.55,-7.38,36.49,0.73,8.73,2.49
319396,-4.01,-6.63,32.79,0.77,8.73,2.23
319431,-5.33,-7.47,25.86,0.80,8.73,2.10
319466,-3.42,-6.90,20.97,0.73,8.73,1.97
319501,-3.08,-4.75,18.67,0.63,8.73,1.81
319536,-2.09,-2.90,17.25,0.68,8.73,1.61
319571,-2.30,-1.21,16.19,0.78,8.73,1.41
319606,0.48,0.88,16.43,0.93,8.73,1.26
319641,7.02,-1.83,16.73,1.20,8.73,1.20
319676,10.80,-2.80,18.53,1.43,8.73,1.26
319711,11.55,-2.86,19.29,1.68,8.73,1.43
319746,11.43,-3.63,20.97,1.77,8.73,1.75
319781,12.66,-4.10,26.47,1.98,8.73,2.13
319816,11.24,-11.18,29.32,1.86,8.73,2.60
319851,9.11,-11.35,32.87,1.57,8.73,2.83
319886,7.76,-11.93,35.77,1.22,8.73,2.88
319921,2.39,-11.37,37.00,0.77,8.73,2.85
319956,0.26,-9.91,37.27,0.60,8.73,2.68
319991,-4.39,-12.29,33.35,0.29,8.73,2.54
320026,-5.28,-6.13,32.34,-0.02,8.73,2.30
320061,-7.99,-4.87,29.36,-0.03,8.73,2.00
320096,-6.20,-1.51,26.05,0.15,8.73,1.72
320131,-5.23,-0.56,22.57,0.36,8.73,1.55
320166,-2.08,-1.29,19.58,0.60,8.73,1.48
320201,3.68,-2.67,17.59,0.82,8.73,1.46
320236,6.86,-0.60,17.76,0.95,8.73,1.42
320271,9.00,-2.08,18.84,1.30,8.73,1.34
320306,10.28,-1.06,20.28,1.56,8.73,1.43
320341,12.74,-5.23,21.93,1.76,8.73,1.68
320376,12.51,-7.63,26.20,1.86,8.73,2.01
320411,12.09,-7.74,30.66,1.72,8.73,2.32
320446,9.44,-13.07,33.72,1.51,8.73,2.62
320481,6.67,-12.12,36.08,1.26,8.73,2.76
320516,3.11,-13.14,36.92,0.81,8.73,2.82
320551,0.06,-12.97,36.95,0.46,8.73,2.86
320586,-3.40,-10.60,35.56,0.07,8.73,2.62
320621,-5.16,-8.22,32.38,-0.31,8.73,2.30
320656,-8.34,-2.17,29.68,-0.41,8.73,1.86
320691,-8.24,-1.81,26.26,-0.13,8.73,1.48
320726,-7.47,1.05,25.07,0.07,8.73,1.22
320761,-5.32,2.42,23.77,0.43,8.73,1.01
320796,-0.36,3.23,22.86,0.86,8.73,0.79
320831,6.85,2.58,22.49,1.32,8.73,0.78
320866,10.42,1.71,23.70,1.93,8.73,0.98
320901,13.04,-2.61,28.31,2.46,8.73,1.38
320936,12.12,-4.81,28.18,2.57,8.73,1.84
320971,12.08,-10.47,32.76,2.33,8.73,2.44
321006,11.80,-17.45,37.58,2.09,8.73,2.73
321041,8.04,-15.81,39.86,1.73,8.73,2.91
321076,4.37,-13.20,40.93,1.20,8.73,3.07
321111,0.65,-13.38,40.42,0.82,8.73,2.96
321146,-3.43,-10.43,37.25,0.53,8.73,2.73
321181,-6.51,-7.35,33.94,0.35,8.73,2.48
321216,-6.77,-9.07,29.87,0.19,8.73,2.21
321251,-6.85,-3.40,26.50,0.11,8.73,1.81
321286,-2.49,-1.64,23.17,0.21,8.73,1.50
321321,-0.34,0.69,21.39,0.45,8.73,1.24
321357,1.06,-0.72,19.62,0.74,8.73,1.09
321392,7.87,0.98,21.21,0.97,8.73,1.10
321431,12.21,-3.46,21.93,1.14,8.73,1.34
321466,13.57,-4.19,25.24,1.22,8.73,1.47
321501,14.51,-7.92,26.89,1.17,8.73,1.58
321536,12.22,-8.04,29.70,1.19,8.73,1.59
321571,10.84,-9.68,31.81,1.23,8.73,1.76
321606,8.26,-9.40,33.05,1.24,8.73,1.94
321641,3.84,-10.70,32.92,1.20,8.73,2.25
321676,1.79,-11.07,33.57,0.89,8.73,2.52
321711,-1.98,-10.79,34.84,0.67,8.73,2.53
321746,-4.75,-6.95,34.22,0.44,8.73,2.38
321781,-6.27,-6.87,31.33,0.38,8.73,2.19
321817,-6.38,-5.50,27.79,0.35,8.73,2.02
321851,-5.19,-3.71,23.59,0.31,8.73,1.76
321886,-2.89,-3.17,19.43,0.29,8.73,1.46
321921,-1.45,1.24,17.09,0.36,8.73,1.12
321956,-1.29,2.40,14.98,0.68,8.73,0.88
321991,2.06,5.30,16.58,0.95,8.73,0.77
322026,5.56,1.61,17.37,1.38,8.73,0.83
322061,10.56,-1.53,19.25,1.53,8.73,1.04
322096,13.01,-2.58,22.82,1.71,8.73,1.29
322131,13.77,-6.04,24.66,1.69,8.73,1.55
322166,13.41,-6.66,27.26,1.68,8.73,1.71
322201,10.03,-8.65,29.91,1.51,8.73,1.86
322236,8.13,-9.33,31.67,1.34,8.73,1.81
322271,5.47,-9.04,33.55,1.28,8.73,1.83
322306,1.64,-10.00,34.08,1.20,8.73,1.89
322341,-1.08,-7.90,31.98,1.20,8.73,2.01
322376,-2.66,-8.27,28.54,1.10,8.73,2.03
322411,-4.50,-7.15,26.87,0.96,8.73,2.03
322446,-5.88,-7.81,24.67,0.86,8.73,2.04
322481,-6.99,-6.12,22.53,0.74,8.73,2.02
322516,-7.04,-5.86,20.07,0.73,8.73,2.03
322551,-4.47,-5.40,16.77,0.68,8.73,2.05
322586,-0.97,-5.21,14.11,0.63,8.73,2.07
322621,2.90,-6.31,12.73,0.52,8.73,2.12
322656,6.97,-7.79,12.27,0.39,8.73,2.13
322691,7.75,-7.57,13.16,0.18,8.73,2.09
322726,9.38,-5.21,16.05,0.08,8.73,1.95
322761,10.97,-2.61,19.29,0.27,8.73,1.70
322796,11.55,-1.41,21.94,0.57,8.73,1.62
322832,11.27,-4.31,25.10,0.85,8.73,1.71
322866,10.86,-5.54,28.44,0.88,8.73,1.85
322901,9.43,-4.98,31.67,0.91,8.73,1.93
322936,6.54,-7.38,33.09,0.86,8.73,2.11
322971,3.39,-8.83,33.29,0.70,8.73,2.24
323006,-0.12,-7.80,32.13,0.43,8.73,2.25
323041,-2.97,-5.06,30.78,0.28,8.73,2.06
323076,-6.59,-3.15,30.66,0.33,8.73,1.84
323111,-7.64,-3.43,27.94,0.36,8.73,1.71
323146,-7.33,-3.37,25.38,0.37,8.73,1.57
323181,-5.99,-0.94,22.87,0.35,8.73,1.39
323216,-3.79,0.95,19.80,0.48,8.73,1.25
323251,-1.11,2.03,17.54,0.66,8.73,1.17
323286,1.62,0.06,16.13,0.87,8.73,1.20
323322,7.07,-0.10,16.42,0.97,8.73,1.28
323357,8.87,-3.60,16.51,1.08,8.73,1.38
323392,10.14,-4.25,18.56,1.04,8.73,1.46
323426,11.43,-2.72,21.86,1.03,8.73,1.51
323466,12.68,-6.22,26.04,0.92,8.73,1.51
323501,12.16,-7.74,29.28,0.83,8.73,1.38
323536,9.97,-6.02,31.57,0.77,8.73,1.17
323571,7.00,-4.64,33.87,0.83,8.73,1.03
323606,4.71,-4.48,35.26,1.03,8.73,1.00
323641,1.02,-7.08,35.45,1.24,8.73,1.23
323676,-2.17,-5.41,35.05,1.25,8.73,1.48
323711,-5.83,-7.25,32.88,1.16,8.73,1.67
323746,-6.98,-6.20,30.20,1.03,8.73,1.71
323781,-6.18,-6.23,26.37,0.90,8.73,1.75
323816,-5.62,-1.48,24.36,0.81,8.73,1.70
323851,-3.07,-3.43,20.72,0.90,8.73,1.63
323886,0.37,-0.99,18.54,0.84,8.73,1.52
323921,3.30,-1.75,17.34,1.00,8.73,1.50
323956,6.05,1.15,17.11,1.11,8.73,1.43
323991,6.87,-3.09,16.92,1.30,8.73,1.53
324026,9.96,0.10,20.56,1.35,8.73,1.58
324061,12.46,-3.78,24.56,1.56,8.73,1.71
324096,13.35,-6.45,27.36,1.51,8.73,1.87
324131,12.50,-6.66,30.87,1.45,8.73,1.95
324166,9.55,-8.29,32.70,1.23,8.73,1.95
324201,8.19,-5.78,35.76,1.14,8.73,1.88
324236,4.32,-7.35,37.06,1.18,8.73,1.79
324271,0.42,-5.75,37.72,1.31,8.73,1.68
324306,-2.90,-9.65,35.47,1.35,8.73,1.77
324341,-4.86,-4.00,33.64,1.28,8.73,1.92
324376,-5.22,-7.48,28.44,1.11,8.73,2.02
324411,-5.61,-5.67,25.28,0.89,8.73,1.93
324446,-5.58,-3.17,23.52,0.77,8.73,1.95
324481,-4.68,-2.31,21.72,0.94,8.73,2.07
324516,-0.71,-5.01,18.75,0.86,8.73,2.12
324551,3.34,-8.92,18.23,0.76,8.73,2.28
324586,7.47,-5.08,19.10,0.53,8.73,2.28
