timestamp,accelX,accelY,accelZ,gyroX,gyroY,gyroZ
4351,7.83,0.33,-5.84,0.25,-0.00,-0.00
4387,7.83,0.31,-5.83,0.25,0.00,-0.00
4421,7.82,0.28,-5.85,0.25,0.00,-0.01
4456,7.82,0.30,-5.86,0.25,0.00,-0.01
4491,7.82,0.27,-5.85,0.25,0.01,-0.01
4526,7.82,0.34,-5.78,0.25,0.01,-0.01
4561,7.80,0.25,-5.87,0.25,0.01,-0.01
4596,7.80,0.32,-5.86,0.24,0.01,-0.00
4631,7.82,0.52,-5.77,0.25,0.01,-0.00
4666,7.75,0.25,-5.90,0.25,0.02,-0.00
4701,7.81,0.42,-5.89,0.25,0.02,0.01
4736,7.80,0.51,-5.80,0.26,0.03,0.01
4771,7.87,0.55,-5.78,0.27,0.03,0.01
4806,7.90,0.41,-5.80,0.28,0.03,0.01
4841,7.89,0.24,-5.75,0.28,0.03,0.02
4876,7.96,0.35,-5.77,0.27,0.03,0.02
4911,7.88,0.24,-5.72,0.27,0.02,0.03
4946,7.46,0.48,-5.53,0.27,0.02,0.03
4981,7.76,0.56,-6.15,0.33,0.04,-0.00
5016,7.86,-0.39,-6.17,0.28,0.06,0.01
5051,7.47,-0.09,-5.60,0.25,0.06,0.02
5086,8.19,-0.55,-5.88,0.21,0.05,0.03
5121,8.18,0.32,-5.42,0.17,0.05,0.04
5156,8.11,0.81,-5.48,0.23,0.06,0.02
5191,7.77,1.13,-5.44,0.30,0.08,-0.04
5226,8.00,-0.13,-6.16,0.33,0.10,-0.05
5261,7.47,-0.30,-5.79,0.27,0.12,-0.04
5296,7.40,0.27,-5.63,0.26,0.14,-0.03
5332,7.93,0.37,-6.00,0.23,0.16,-0.01
5366,7.55,0.48,-5.65,0.22,0.18,0.01
5401,7.83,0.53,-5.59,0.26,0.21,0.00
5436,8.02,0.51,-5.39,0.24,0.23,0.02
5471,8.07,0.22,-5.46,0.25,0.25,0.02
5506,8.24,0.47,-5.21,0.23,0.26,0.04
5541,7.90,1.26,-4.87,0.28,0.27,0.04
5576,8.07,0.98,-5.39,0.36,0.31,0.04
5611,7.75,0.46,-5.32,0.39,0.37,0.04
5646,7.31,-0.01,-5.23,0.38,0.44,0.07
5681,7.51,-0.37,-5.53,0.32,0.52,0.11
5716,7.24,0.12,-5.38,0.27,0.63,0.15
5751,7.49,0.38,-4.92,0.26,0.74,0.19
5786,8.09,0.21,-4.64,0.26,0.83,0.22
5821,8.64,0.62,-3.90,0.30,0.91,0.23
5856,9.03,0.11,-3.45,0.33,0.94,0.25
5891,9.03,0.42,-2.83,0.35,0.97,0.28
5926,9.74,0.16,-2.74,0.42,0.97,0.29
5961,9.34,-1.03,-2.36,0.40,0.98,0.31
5996,9.49,-1.68,-1.95,0.29,0.98,0.32
6031,10.15,-1.35,-1.87,0.22,0.98,0.33
6066,9.56,-1.34,-1.17,0.16,0.98,0.33
6106,10.33,-0.53,-0.28,0.12,0.89,0.32
6141,10.49,-0.58,-0.28,0.17,0.85,0.32
6176,11.42,-0.87,0.40,0.21,0.78,0.32
6211,10.13,-1.53,0.25,0.24,0.71,0.29
6246,9.84,-1.57,0.36,0.22,0.61,0.29
6281,10.50,-1.63,0.55,0.21,0.55,0.26
6316,10.51,-1.73,0.68,0.25,0.52,0.24
6352,10.00,-1.66,0.81,0.26,0.48,0.23
6387,9.38,-0.23,1.07,0.24,0.44,0.22
6421,9.62,0.14,0.92,0.48,0.42,0.28
6456,10.13,-1.42,0.80,0.54,0.45,0.31
6491,10.43,-2.90,0.78,0.49,0.48,0.31
6526,9.41,-4.13,0.81,0.29,0.52,0.28
6561,10.01,-1.77,1.53,0.22,0.53,0.25
6596,9.97,-2.11,1.71,0.21,0.54,0.26
6631,9.32,0.21,2.35,0.33,0.52,0.31
6666,9.03,-1.08,2.16,0.56,0.48,0.37
6701,10.23,-0.68,2.69,0.74,0.45,0.43
6736,8.91,-2.81,2.47,0.82,0.44,0.47
6771,8.77,-3.99,2.59,0.76,0.41,0.44
6806,9.32,-5.48,2.40,0.49,0.42,0.30
6841,10.55,-4.17,3.08,0.27,0.46,0.19
6876,9.06,-4.27,3.00,0.15,0.47,0.14
6911,8.53,-0.52,3.45,0.21,0.41,0.16
6946,9.38,-1.11,3.61,0.49,0.36,0.30
6981,8.80,-1.38,3.51,0.69,0.34,0.43
7016,8.55,-2.32,3.52,0.85,0.35,0.50
7051,8.61,-4.48,3.26,0.83,0.40,0.48
7087,8.45,-5.76,3.11,0.66,0.52,0.33
7121,8.62,-5.07,3.63,0.48,0.63,0.16
7156,7.83,-5.00,3.60,0.35,0.72,0.02
7191,7.89,-3.40,4.21,0.25,0.77,-0.11
7226,9.01,-2.15,5.30,0.28,0.80,-0.09
7261,8.09,-2.70,5.08,0.36,0.81,0.00
7296,7.08,-3.21,4.67,0.35,0.83,0.00
7331,8.51,-3.99,6.25,0.36,0.85,0.03
7367,8.03,-0.89,5.42,0.40,0.92,0.01
7401,6.77,-2.28,4.41,0.37,1.00,-0.09
7436,7.61,-2.95,6.23,0.31,1.06,-0.24
7471,7.71,0.07,7.24,0.25,1.23,-0.35
7506,7.79,-1.39,8.04,0.24,1.46,-0.39
7541,6.74,-2.88,7.86,0.21,1.66,-0.40
7576,5.09,-3.70,6.89,0.21,1.82,-0.37
7611,4.72,-0.36,8.52,0.37,1.86,-0.20
7646,5.91,0.96,10.46,0.50,1.80,-0.04
7681,5.39,2.09,10.82,0.54,1.82,0.15
7716,3.73,-3.03,8.80,0.55,1.86,0.31
7751,3.54,-3.27,9.32,0.51,1.98,0.22
7786,3.34,-2.95,10.52,0.52,2.14,0.25
7821,2.89,-2.95,11.63,0.60,2.40,0.29
7856,1.83,-1.33,11.28,0.66,2.71,0.26
7891,0.87,-1.63,12.55,0.66,2.97,0.20
7926,-0.17,-1.62,12.84,0.75,3.22,0.05
7961,-1.41,-2.27,12.65,0.85,3.42,0.11
7996,-2.54,-1.09,13.66,1.00,3.56,0.05
8031,-3.77,-2.36,12.99,1.20,3.62,-0.04
8066,-4.85,-2.54,11.75,1.19,3.62,0.05
8101,-6.20,-2.65,12.54,1.10,3.63,0.20
8141,-7.41,-2.96,11.82,0.53,3.76,0.58
8176,-7.34,-3.03,10.62,0.18,3.91,0.71
8211,-7.17,-0.21,9.39,-0.20,4.09,0.75
8246,-10.22,2.05,10.72,-0.21,4.26,0.67
8281,-9.27,-1.59,7.87,-0.22,4.46,0.59
8316,-8.47,0.49,6.62,-0.33,4.59,0.47
8351,-12.05,1.11,5.83,-0.24,4.70,0.42
8386,-9.06,2.16,4.11,-0.13,4.79,0.34
8421,-7.08,2.24,2.46,-0.09,4.82,0.25
8456,-7.97,3.60,1.63,-0.01,4.92,0.18
8491,-6.78,2.12,-0.11,0.14,5.00,0.22
8526,-2.51,1.01,-0.39,0.26,4.96,0.27
8561,5.65,4.83,-4.75,0.54,5.04,0.53
8596,-6.99,0.92,-4.71,0.55,4.88,0.67
8631,-8.48,3.33,-2.74,0.73,4.97,0.47
8666,-0.04,3.12,-2.70,0.78,5.14,0.30
8701,6.45,2.85,0.55,1.18,5.18,-0.08
8736,5.82,0.38,-0.95,1.29,5.03,-0.10
8771,6.34,0.41,-1.27,1.18,5.02,0.20
8806,7.77,-2.13,0.10,1.00,5.14,0.48
8842,8.66,-2.27,2.35,0.83,5.27,0.64
8876,9.66,-3.82,4.49,0.70,5.41,0.73
8911,10.33,-4.33,6.17,0.48,5.51,0.72
8946,10.96,-2.44,8.34,0.31,5.57,0.66
8981,10.30,-1.96,10.95,0.32,5.58,0.60
9016,9.32,-1.55,12.67,0.56,5.53,0.64
9051,7.73,-2.91,13.73,0.72,5.56,0.73
9086,7.02,-2.08,15.57,0.75,5.70,0.70
9121,5.82,-3.37,17.92,0.78,5.92,0.57
9156,3.74,-1.61,20.28,0.84,6.16,0.41
9191,2.10,-2.34,20.55,0.98,6.35,0.33
9226,-0.33,-2.36,21.99,1.21,6.43,0.34
9261,-1.23,-3.25,20.30,1.34,6.48,0.52
9296,-3.30,-3.35,19.35,1.34,6.53,0.67
9332,-6.49,-3.65,19.79,1.27,6.60,0.86
9366,-7.92,-4.14,18.62,0.98,6.72,1.07
9401,-8.61,-1.47,16.64,0.82,6.85,1.14
9436,-7.24,-0.81,12.74,0.73,6.85,1.16
9471,-7.23,0.28,9.99,0.79,6.74,1.15
9506,-7.06,-1.13,8.19,0.83,6.67,1.23
9541,-5.60,-1.43,7.22,0.85,6.66,1.36
9576,-5.38,-1.31,3.97,0.85,6.67,1.44
9611,-3.61,-0.54,3.05,0.85,6.71,1.54
9646,-1.44,-1.37,3.22,0.79,6.75,1.57
9681,1.92,-0.78,3.40,0.80,6.85,1.49
9716,5.05,0.22,4.62,0.83,6.90,1.41
9751,6.46,-1.10,5.32,0.92,6.97,1.32
9786,7.67,0.11,7.24,1.01,7.04,1.31
9821,9.83,-3.43,9.11,0.94,7.13,1.38
9856,10.60,-4.81,12.05,0.75,7.24,1.41
9891,10.20,-4.13,14.93,0.57,7.31,1.35
9927,10.68,-3.69,17.28,0.49,7.38,1.27
9961,9.87,-3.11,19.99,0.56,7.48,1.30
9996,7.83,-3.06,22.18,0.70,7.54,1.40
10031,6.57,-4.03,24.69,0.75,7.56,1.64
10066,3.62,-5.42,26.55,0.72,7.66,1.82
10101,1.06,-4.83,26.34,0.66,7.70,1.87
10136,-1.12,-3.97,26.57,0.70,7.79,1.70
10176,-3.95,-1.83,25.42,1.04,7.85,1.36
10211,-5.38,-2.34,23.24,1.50,7.82,1.26
10246,-6.12,-4.58,18.80,1.71,7.72,1.42
10281,-7.46,-4.26,15.85,1.70,7.58,1.57
10317,-8.78,-4.94,14.24,1.50,7.60,1.67
10351,-7.73,-3.56,11.86,1.22,7.72,1.57
10386,-3.61,-1.41,10.08,0.98,7.76,1.32
10421,-1.70,1.13,8.42,0.89,7.78,1.06
10456,0.13,0.49,7.27,0.98,7.76,1.02
10491,1.43,1.40,7.35,1.06,7.78,1.05
10526,3.39,1.03,8.09,1.22,7.85,1.06
10561,5.43,0.30,9.02,1.39,7.91,1.16
10596,8.99,2.41,10.95,1.54,7.92,1.28
10631,11.05,-1.13,14.19,1.59,7.99,1.47
10666,11.30,-4.27,15.61,1.56,8.06,1.64
10701,11.54,-3.79,18.86,1.36,8.12,1.70
10736,10.82,-7.69,21.86,1.28,8.15,1.83
10771,9.26,-6.29,25.12,1.13,8.19,1.78
10806,7.42,-6.48,27.10,1.00,8.13,1.77
10841,4.81,-6.69,27.07,0.88,8.03,1.89
10876,1.63,-6.82,27.27,0.75,8.05,2.01
10911,-1.23,-5.16,27.66,0.60,8.12,2.00
10946,-3.73,-4.79,25.80,0.55,8.19,1.87
10981,-5.42,-2.43,24.51,0.65,8.19,1.75
11016,-5.95,-1.85,21.10,0.84,8.15,1.68
11051,-6.56,-3.64,17.45,0.98,8.03,1.70
11086,-7.94,-5.22,15.76,1.05,8.00,1.81
11121,-7.46,-4.00,13.54,1.07,8.04,1.94
11156,-4.29,-4.96,11.16,1.04,8.03,2.02
11191,-3.08,-3.11,9.63,0.90,8.05,2.00
11226,-0.28,-2.09,8.92,0.80,8.12,1.95
11261,2.72,-1.68,9.40,0.74,8.25,1.81
11296,4.94,-3.15,10.09,0.76,8.38,1.72
11331,7.77,-3.81,11.76,0.80,8.51,1.69
11366,9.80,-5.29,14.42,0.90,8.56,1.66
11401,11.01,-4.94,17.48,0.90,8.56,1.65
11436,12.09,-6.34,20.39,0.86,8.50,1.61
11471,10.83,-6.13,23.00,0.78,8.45,1.52
11506,10.07,-6.65,24.94,0.73,8.43,1.42
11541,7.77,-5.35,27.28,0.72,8.41,1.32
11576,5.07,-6.22,28.03,0.74,8.38,1.36
11611,2.13,-6.26,28.91,0.78,8.47,1.41
11646,-0.14,-6.55,29.31,0.80,8.46,1.59
11681,-3.37,-7.28,29.38,0.71,8.56,1.80
11716,-5.40,-5.81,28.64,0.49,8.65,1.90
11751,-4.94,-1.88,25.45,0.57,8.73,1.84
11786,-5.32,-1.33,20.98,0.63,8.73,1.70
11821,-5.66,0.18,16.46,0.85,8.67,1.63
11856,-6.26,-0.13,15.77,1.07,8.67,1.69
11891,-4.33,0.73,12.40,0.97,8.50,1.65
11926,-3.75,2.27,11.42,0.99,8.57,1.33
11961,0.06,2.93,11.65,0.98,8.67,1.13
11996,5.81,2.33,12.62,1.21,8.68,0.93
12031,8.00,0.72,12.43,1.42,8.64,1.01
12066,10.02,-1.34,14.25,1.55,8.63,1.21
12101,12.01,-4.83,17.02,1.50,8.60,1.43
12136,12.98,-5.21,19.43,1.42,8.58,1.55
12171,12.35,-5.13,22.06,1.32,8.58,1.62
12211,11.01,-5.46,25.43,1.26,8.56,1.66
12246,9.04,-6.14,27.33,1.14,8.58,1.65
12281,7.24,-7.00,28.81,1.08,8.54,1.61
12317,3.75,-7.05,30.05,1.03,8.57,1.56
12351,0.29,-5.46,29.53,1.11,8.52,1.48
12386,-2.83,-6.22,29.25,1.22,8.51,1.50
12421,-5.26,-5.29,28.04,1.28,8.58,1.57
12456,-6.02,-5.71,24.62,1.41,8.59,1.65
12491,-6.98,-6.17,22.33,1.42,8.59,1.81
12526,-7.57,-5.51,19.47,1.32,8.60,1.92
12561,-7.58,-5.80,16.35,1.19,8.60,2.00
12596,-4.20,-4.39,14.51,1.02,8.64,2.02
12631,-2.41,-1.56,12.47,0.87,8.71,1.92
12666,-0.06,-1.04,11.57,0.81,8.73,1.82
12701,3.67,-0.55,12.57,0.78,8.73,1.78
12736,6.86,-0.35,13.80,0.71,8.73,1.75
12771,10.27,-1.63,14.68,0.60,8.73,1.76
12806,11.48,-3.42,16.84,0.48,8.73,1.69
12841,12.49,-3.23,19.10,0.43,8.73,1.59
12876,12.67,-3.79,20.99,0.44,8.73,1.46
12911,11.72,-5.14,24.06,0.55,8.73,1.42
12946,9.84,-4.81,27.33,0.66,8.73,1.40
12981,7.52,-5.27,29.41,0.74,8.70,1.47
13016,4.98,-4.43,30.80,0.78,8.72,1.46
13051,1.32,-4.61,30.61,0.84,8.73,1.50
13086,-1.76,-4.83,29.77,0.82,8.71,1.57
13121,-4.17,-3.30,28.61,0.84,8.73,1.59
13156,-6.14,-4.50,26.32,0.94,8.73,1.61
13191,-6.79,-2.58,24.23,1.02,8.73,1.64
13226,-7.28,-3.61,20.92,1.10,8.73,1.70
13261,-6.64,-3.92,18.12,1.10,8.73,1.77
13296,-2.70,-3.60,15.02,1.05,8.73,1.82
13332,-0.03,-2.10,11.83,0.99,8.73,1.83
13366,2.80,-0.86,11.61,0.94,8.73,1.76
13401,4.03,0.68,11.69,0.92,8.70,1.72
13436,4.71,0.38,12.81,0.95,8.73,1.66
13471,8.20,-0.32,14.00,1.02,8.73,1.64
13506,11.10,-2.93,17.21,1.04,8.73,1.68
13541,11.94,-4.23,19.66,0.90,8.73,1.69
13576,12.14,-5.05,21.96,0.73,8.73,1.61
13612,10.77,-5.00,24.30,0.71,8.72,1.53
13646,9.99,-4.81,27.19,0.70,8.73,1.43
13681,7.47,-5.20,29.31,0.77,8.73,1.36
13716,4.31,-6.07,30.75,0.79,8.73,1.35
13751,1.46,-5.47,31.41,0.85,8.73,1.39
13786,-0.88,-5.44,30.26,0.84,8.73,1.42
13822,-3.97,-5.42,29.98,0.82,8.73,1.50
13856,-5.67,-3.47,28.14,0.83,8.73,1.55
13891,-5.72,-3.06,24.47,0.83,8.73,1.56
13926,-7.25,-3.66,21.50,0.88,8.73,1.58
13961,-7.21,-2.56,17.81,0.97,8.73,1.64
13996,-3.06,-2.63,15.16,1.02,8.73,1.76
14031,-0.26,-2.06,13.10,1.00,8.73,1.80
14066,1.84,-0.59,12.32,0.97,8.73,1.75
14101,5.37,2.38,13.06,1.03,8.73,1.61
14136,7.31,3.92,14.25,1.21,8.73,1.41
14171,10.55,3.59,16.44,1.52,8.73,1.36
14206,11.75,-0.53,18.11,1.65,8.73,1.49
14246,11.43,-6.36,17.91,1.49,8.73,1.69
14281,11.90,-6.06,24.18,1.29,8.73,1.69
14317,11.32,-9.07,26.99,1.03,8.73,1.60
14351,9.63,-5.31,28.29,0.91,8.73,1.41
14386,7.59,-6.22,29.97,0.95,8.73,1.38
14421,4.18,-5.81,31.01,1.03,8.73,1.44
14456,0.36,-6.56,32.11,1.05,8.73,1.55
14491,-2.14,-5.45,30.77,0.96,8.73,1.64
14526,-4.47,-5.90,27.72,0.93,8.73,1.61
14561,-6.17,-4.43,25.29,0.87,8.73,1.62
14596,-7.82,-2.85,23.13,0.84,8.73,1.63
14631,-6.24,-3.48,19.44,0.83,8.73,1.61
14666,-6.30,-2.54,16.59,0.78,8.73,1.58
14701,-3.35,-1.57,14.27,0.80,8.73,1.54
14736,-0.65,-3.45,11.91,0.85,8.73,1.53
14771,1.46,-5.53,10.41,0.82,8.71,1.61
14806,4.81,-6.92,10.61,0.75,8.70,1.74
14841,6.16,-8.05,11.97,0.64,8.73,1.79
14876,8.69,-6.14,13.60,0.52,8.73,1.80
14911,9.88,-4.05,17.98,0.49,8.73,1.74
14946,11.68,-4.79,21.39,0.51,8.73,1.65
14981,11.23,-3.72,24.28,0.60,8.73,1.56
15016,10.58,-4.56,26.43,0.69,8.73,1.52
15051,9.32,-4.17,29.12,0.76,8.73,1.48
15086,7.41,-6.34,30.71,0.79,8.73,1.49
15121,3.90,-6.33,31.63,0.78,8.73,1.45
15156,0.38,-5.56,31.76,0.83,8.73,1.43
15191,-1.81,-3.34,31.35,0.88,8.73,1.44
15226,-4.74,-4.38,29.03,0.86,8.73,1.52
15261,-5.15,-2.72,24.52,0.84,8.73,1.56
15296,-6.28,-2.90,21.44,0.79,8.73,1.54
15331,-7.01,-2.76,18.48,0.80,8.73,1.50
15366,-6.55,-2.86,15.73,0.80,8.73,1.50
15401,-4.22,-3.29,13.74,0.84,8.71,1.52
15436,-3.14,-1.30,12.14,0.86,8.73,1.44
15471,1.86,-0.34,11.67,0.88,8.73,1.41
15506,5.52,-0.47,11.06,0.97,8.72,1.38
15541,6.92,-1.74,11.94,1.03,8.72,1.40
15576,10.03,-2.29,14.40,1.09,8.73,1.49
15611,10.81,-4.76,17.00,1.08,8.73,1.58
15646,11.83,-5.08,20.03,0.98,8.73,1.64
15681,11.51,-5.50,23.73,0.90,8.73,1.62
15716,11.30,-5.62,26.51,0.84,8.73,1.55
15751,9.27,-5.51,28.70,0.81,8.73,1.48
15786,7.27,-6.70,30.49,0.84,8.73,1.54
15821,3.86,-7.36,31.52,0.81,8.73,1.62
15856,0.43,-7.27,30.57,0.70,8.73,1.73
15891,-2.22,-5.54,30.04,0.55,8.71,1.77
15926,-4.98,-4.90,28.40,0.42,8.73,1.73
15961,-6.23,-2.22,26.47,0.44,8.73,1.63
15996,-6.88,-2.19,22.62,0.49,8.73,1.55
16031,-5.88,-1.49,19.03,0.52,8.73,1.46
16066,-4.84,-0.54,16.10,0.60,8.73,1.45
16101,-3.50,-0.13,13.75,0.66,8.73,1.45
16136,-1.70,-0.91,12.13,0.73,8.73,1.35
16171,1.35,-2.53,11.81,0.80,8.73,1.33
16206,3.48,-4.60,11.32,0.86,8.73,1.39
16241,6.22,-4.73,12.86,0.89,8.73,1.45
16281,10.50,-2.99,15.51,0.81,8.73,1.52
16317,11.79,-4.77,18.78,0.67,8.73,1.52
16351,12.12,-4.66,21.73,0.59,8.73,1.43
16386,11.32,-1.58,24.32,0.64,8.73,1.37
16421,10.50,-4.46,26.43,0.73,8.73,1.35
16456,9.43,-3.92,29.70,0.79,8.73,1.35
16491,6.41,-3.01,31.52,0.83,8.73,1.34
16526,3.70,-3.47,32.18,0.95,8.73,1.20
16561,0.96,-3.91,30.95,1.13,8.73,1.15
16596,-2.35,-4.28,29.22,1.26,8.73,1.22
16631,-4.95,-5.15,28.70,1.23,8.73,1.41
16666,-6.70,-4.74,25.90,1.11,8.73,1.53
16701,-6.23,-3.51,21.96,0.92,8.73,1.55
16736,-7.39,-2.34,19.08,0.78,8.73,1.45
16771,-7.19,-1.60,17.03,0.77,8.73,1.36
16806,-5.68,-0.65,14.81,0.84,8.73,1.40
16842,-1.20,0.11,13.18,0.91,8.73,1.35
16876,0.87,1.00,12.42,0.94,8.73,1.44
16911,5.83,2.07,13.28,1.00,8.73,1.46
16946,8.43,0.08,13.70,1.05,8.73,1.50
16981,11.32,-0.10,16.54,1.21,8.73,1.52
17016,11.97,-1.97,19.12,1.31,8.73,1.58
17051,11.53,-4.07,20.64,1.30,8.72,1.69
17086,11.35,-6.12,22.71,1.19,8.71,1.81
17121,10.82,-6.42,26.03,1.07,8.71,1.85
17156,8.31,-5.64,28.67,0.90,8.72,1.83
17191,6.27,-5.67,30.13,0.83,8.69,1.85
17226,3.43,-7.20,29.69,0.77,8.66,1.86
17261,-0.18,-6.97,29.90,0.69,8.55,1.93
17296,-2.61,-5.43,30.50,0.60,8.57,1.90
17331,-5.17,-4.97,29.09,0.60,8.71,1.82
17366,-6.56,-2.96,26.42,0.70,8.73,1.76
17401,-6.18,-3.60,22.09,0.82,8.73,1.76
17436,-6.79,-3.69,19.46,0.93,8.73,1.79
17471,-5.96,-4.87,16.50,0.98,8.73,1.91
17506,-3.07,-6.42,13.73,0.97,8.73,1.99
17541,-1.97,-6.98,11.52,0.89,8.72,1.97
17576,-0.69,-4.43,10.60,0.75,8.73,1.85
17611,4.55,-2.92,11.92,0.76,8.73,1.71
17646,7.24,-2.87,13.02,0.89,8.73,1.54
17681,10.17,-2.27,14.76,0.99,8.73,1.53
17716,12.11,-4.67,18.38,1.05,8.73,1.56
17751,13.01,-5.37,20.79,0.98,8.73,1.57
17786,12.59,-5.09,23.39,0.88,8.73,1.51
17822,10.59,-5.10,25.55,0.81,8.72,1.44
17856,8.96,-4.75,27.45,0.81,8.70,1.34
17891,7.19,-4.71,29.62,0.88,8.71,1.38
17927,3.86,-4.04,30.45,0.93,8.70,1.48
17961,0.87,-4.82,30.06,0.96,8.63,1.58
17996,-1.90,-5.13,29.52,0.93,8.61,1.64
18031,-5.33,-3.81,29.70,0.95,8.66,1.61
18066,-6.06,-3.22,26.94,1.12,8.73,1.61
18101,-6.87,-4.99,24.62,1.30,8.73,1.73
18136,-8.31,-4.93,21.73,1.27,8.73,1.85
18171,-7.61,-2.73,18.83,1.17,8.73,1.93
18206,-2.33,-1.15,15.67,1.02,8.73,1.86
18241,2.10,0.14,13.11,0.99,8.73,1.66
18276,3.26,-0.27,11.76,1.03,8.73,1.43
18316,6.31,0.41,11.94,1.13,8.73,1.33
18351,6.58,-2.37,12.53,1.24,8.73,1.35
18386,9.63,-2.16,14.47,1.26,8.73,1.50
18421,11.86,-3.77,17.60,1.15,8.73,1.64
18456,12.99,-3.45,21.05,1.08,8.73,1.70
18491,12.66,-3.81,23.33,1.07,8.73,1.74
18526,10.84,-5.77,25.42,1.06,8.72,1.78
18561,9.09,-6.05,27.59,1.01,8.73,1.77
18596,7.54,-6.37,29.95,0.98,8.73,1.80
18631,4.10,-6.73,31.55,0.94,8.73,1.75
18666,0.62,-6.66,31.87,0.92,8.73,1.73
18701,-2.36,-6.05,31.56,0.88,8.73,1.72
18736,-4.89,-4.11,30.42,0.89,8.73,1.69
18771,-6.22,-3.35,26.97,0.91,8.73,1.69
18806,-5.89,-4.41,22.57,0.87,8.73,1.70
18842,-5.70,-2.90,19.28,0.82,8.73,1.69
18876,-6.08,-2.06,17.33,0.85,8.73,1.71
18911,-4.51,-2.33,15.28,0.85,8.73,1.79
18946,-1.67,-2.05,12.89,0.84,8.73,1.81
18981,1.14,-2.82,12.23,0.78,8.73,1.89
19016,5.68,-3.20,12.12,0.74,8.73,1.82
19051,7.23,-1.64,13.06,0.74,8.73,1.73
19086,9.96,-3.22,15.62,0.92,8.73,1.61
19121,11.58,-4.08,18.88,1.01,8.73,1.60
19156,12.22,-5.19,21.18,0.98,8.73,1.63
19191,12.04,-5.77,24.34,0.91,8.73,1.63
19227,10.77,-5.17,27.22,0.82,8.73,1.59
19261,8.38,-4.11,29.75,0.82,8.73,1.48
19296,5.95,-5.67,31.75,0.88,8.73,1.53
19331,3.15,-6.72,32.46,0.91,8.73,1.57
19366,-0.18,-7.06,31.95,0.87,8.73,1.69
19401,-3.47,-5.14,31.29,0.75,8.73,1.77
19436,-5.36,-3.91,28.54,0.65,8.73,1.76
19471,-6.57,-3.79,25.29,0.69,8.73,1.70
19506,-7.28,-2.87,22.73,0.75,8.73,1.69
19541,-7.45,-2.99,19.22,0.86,8.73,1.74
19576,-4.74,-3.47,16.57,0.92,8.73,1.82
19611,-1.87,-2.53,14.55,0.86,8.73,1.83
19646,1.04,-1.16,12.97,0.85,8.73,1.76
19681,2.76,-1.58,12.47,0.82,8.73,1.73
19716,4.57,-1.39,12.35,0.80,8.73,1.72
19751,7.59,-3.67,13.18,0.75,8.73,1.73
19786,9.36,-4.97,15.69,0.71,8.73,1.70
19821,10.35,-5.13,18.66,0.66,8.73,1.67
19856,11.25,-4.66,22.70,0.61,8.73,1.60
19891,10.85,-4.63,26.72,0.74,8.73,1.59
19926,9.93,-5.41,29.71,0.80,8.73,1.58
19961,7.63,-6.23,32.12,0.78,8.73,1.58
19996,4.50,-5.68,33.11,0.78,8.73,1.56
20031,1.13,-4.33,32.99,0.90,8.73,1.55
20066,-1.59,-5.92,31.65,0.90,8.73,1.59
20101,-4.61,-5.18,29.52,0.90,8.73,1.59
20136,-5.37,-4.27,26.59,0.91,8.73,1.59
20171,-6.54,-3.39,23.74,0.92,8.73,1.58
20206,-7.07,-2.76,20.99,0.93,8.73,1.56
20241,-6.87,-2.19,17.53,0.93,8.73,1.55
20276,-3.66,-2.73,14.43,0.92,8.73,1.54
20311,-1.81,-2.83,12.21,0.93,8.73,1.43
20351,2.49,0.31,13.59,0.99,8.73,1.40
20386,7.29,-1.84,12.33,1.12,8.73,1.47
20421,7.35,-3.29,12.51,1.15,8.73,1.59
20456,9.27,-4.00,14.66,1.19,8.73,1.60
20491,10.89,-4.81,18.22,1.30,8.73,1.75
20526,11.83,-5.01,21.19,1.26,8.73,1.82
20561,11.94,-5.04,25.26,1.30,8.73,1.96
20596,10.61,-6.02,28.19,1.24,8.73,2.07
20631,8.95,-5.92,29.92,1.14,8.73,2.12
20666,6.09,-7.70,31.16,1.06,8.73,2.21
20701,2.56,-7.68,31.76,0.93,8.73,2.18
20736,-1.00,-6.58,32.44,0.83,8.73,2.08
20771,-3.29,-5.26,30.65,0.84,8.73,1.94
20806,-4.90,-4.06,27.59,0.83,8.73,1.88
20841,-6.69,-4.42,24.49,0.84,8.73,1.87
20876,-6.98,-5.26,21.14,0.87,8.73,1.87
20911,-6.87,-5.62,18.39,0.84,8.73,1.93
20946,-5.91,-6.72,15.73,0.78,8.73,2.02
20981,-4.70,-4.35,14.36,0.69,8.73,2.16
21016,-0.79,-4.20,13.05,0.58,8.73,2.21
21051,2.37,-7.06,11.94,0.39,8.73,2.35
21086,4.73,-8.16,12.27,0.10,8.73,2.38
21121,8.39,-8.36,13.14,-0.22,8.73,2.32
21156,9.65,-7.07,15.85,-0.39,8.73,2.06
21191,9.73,-4.80,19.26,-0.41,8.73,1.77
21226,11.29,-1.75,23.39,-0.21,8.73,1.47
21261,12.61,-3.95,26.76,0.08,8.73,1.40
21296,10.43,-3.87,30.37,0.27,8.73,1.28
21331,8.24,-3.45,32.51,0.47,8.73,1.20
21366,5.04,-2.98,33.32,0.61,8.73,1.17
21401,0.75,-3.51,32.02,0.73,8.73,1.24
21436,-2.23,-4.97,30.17,0.63,8.73,1.39
21471,-5.51,-4.38,29.03,0.44,8.73,1.44
21506,-4.85,-2.33,25.51,0.21,8.73,1.40
21541,-4.71,0.33,22.59,-0.04,8.73,1.20
21576,-6.79,1.72,20.18,-0.14,8.73,0.87
21611,-5.86,5.18,17.71,-0.06,8.73,0.61
21646,-2.92,7.05,14.88,0.21,8.73,0.45
21681,-3.49,7.44,13.39,0.49,8.73,0.35
21716,-1.46,5.17,12.71,0.83,8.73,0.60
21751,1.95,2.92,13.01,0.92,8.73,1.09
21786,5.20,-1.26,12.75,0.95,8.73,1.31
21822,10.09,-2.92,14.96,0.89,8.73,1.48
21856,11.45,-3.80,18.10,0.83,8.73,1.52
21891,12.09,-4.33,20.57,0.87,8.73,1.50
21927,12.00,-4.81,23.36,0.84,8.73,1.48
21961,10.83,-6.45,26.18,0.83,8.73,1.41
21996,9.20,-4.43,28.78,0.75,8.73,1.20
22031,7.00,-3.30,30.41,0.78,8.73,0.98
22066,3.88,-3.26,30.53,0.90,8.67,0.92
22102,1.27,-3.44,31.19,1.16,8.64,1.05
22136,-1.41,-4.48,30.97,1.22,8.69,1.25
22171,-3.87,-3.90,27.98,1.14,8.69,1.40
22206,-5.41,-4.66,25.08,1.08,8.67,1.49
22241,-6.87,-4.13,22.54,1.03,8.67,1.54
22276,-6.92,-4.89,19.57,0.96,8.69,1.55
22311,-7.11,-3.47,16.51,0.91,8.68,1.55
22347,-3.07,-3.67,13.73,0.86,8.71,1.50
22386,0.10,2.75,12.90,0.85,8.72,1.40
22421,2.16,1.80,11.90,0.92,8.73,1.35
22456,4.53,1.56,12.64,0.97,8.73,1.38
22491,6.70,0.42,13.13,0.89,8.72,1.53
22526,10.27,-1.63,14.14,0.72,8.71,1.65
22561,11.38,-4.37,15.70,0.63,8.64,1.62
22596,11.84,-3.98,17.95,0.57,8.58,1.51
22631,12.10,-3.58,20.40,0.61,8.53,1.46
22666,10.59,-4.15,23.54,0.74,8.49,1.50
22701,10.34,-3.40,26.21,0.83,8.48,1.61
22736,7.84,-5.06,27.49,0.88,8.40,1.76
22771,4.70,-4.88,28.32,0.83,8.32,1.82
22806,2.04,-3.74,29.69,0.76,8.38,1.79
22842,-0.55,-3.67,29.89,0.70,8.45,1.72
22876,-2.95,-3.34,28.01,0.75,8.52,1.61
22911,-5.93,-3.42,27.91,0.92,8.58,1.57
22946,-6.33,-3.64,24.78,0.99,8.64,1.57
22981,-6.73,-3.02,21.47,1.02,8.64,1.66
23016,-7.01,-3.27,17.65,0.97,8.61,1.65
23051,-7.13,-2.27,15.23,0.96,8.62,1.67
23086,-3.45,-2.39,12.48,0.94,8.59,1.64
23121,-0.69,-0.54,10.95,0.93,8.54,1.49
23156,1.03,1.13,10.98,0.98,8.53,1.40
23191,5.42,3.31,11.58,1.07,8.52,1.37
23226,8.05,1.95,12.27,1.16,8.50,1.38
23261,11.37,0.25,14.35,1.28,8.45,1.43
23297,12.34,-3.51,16.70,1.32,8.35,1.53
23332,12.88,-4.47,18.26,1.26,8.24,1.62
23366,12.43,-4.19,20.13,1.16,8.23,1.72
23401,10.77,-6.32,22.36,1.10,8.28,1.78
23436,9.31,-5.23,25.32,1.00,8.37,1.70
23471,6.92,-6.54,27.54,0.96,8.39,1.70
23507,4.26,-6.34,29.06,0.91,8.43,1.64
23541,1.07,-6.41,29.22,0.93,8.45,1.55
23576,-1.06,-5.63,28.54,1.05,8.46,1.46
23611,-3.89,-5.62,26.43,1.17,8.43,1.43
23646,-5.60,-4.35,24.53,1.14,8.37,1.49
23681,-6.83,-5.66,21.69,1.10,8.35,1.57
23716,-7.06,-4.02,19.53,0.95,8.38,1.59
23751,-6.11,-2.92,16.70,0.82,8.42,1.55
23786,-5.37,-1.98,14.04,0.73,8.46,1.48
23821,-3.62,-1.84,11.63,0.75,8.45,1.41
23856,-1.62,-3.17,9.23,0.79,8.39,1.38
23891,1.37,-2.85,9.07,0.76,8.30,1.48
23926,5.82,-0.25,9.17,0.70,8.21,1.53
23961,7.42,-1.04,10.23,0.70,8.17,1.47
23996,9.52,-3.35,11.45,0.77,8.16,1.42
24031,10.91,-2.19,14.35,0.83,8.17,1.45
24066,11.73,-2.63,17.32,0.87,8.18,1.45
24101,11.79,-3.73,19.05,0.93,8.10,1.47
24136,10.81,-4.45,21.04,0.91,8.11,1.51
24171,10.22,-4.12,24.16,0.85,8.15,1.48
24206,7.24,-5.54,26.06,0.85,8.18,1.47
24241,5.11,-4.32,27.08,0.84,8.14,1.48
24276,2.63,-4.93,28.01,0.88,8.23,1.39
24311,-0.64,-5.79,28.46,0.97,8.24,1.40
24347,-2.81,-3.92,27.27,1.04,8.29,1.44
24381,-4.64,-4.16,24.90,1.13,8.27,1.47
24421,-6.28,-3.13,21.78,1.17,8.15,1.56
24456,-6.13,-3.69,18.67,1.10,8.10,1.61
24491,-10.23,-4.25,17.27,1.09,8.04,1.68
24526,-9.11,-2.50,14.81,1.09,8.05,1.80
24561,-5.92,-2.13,11.49,1.10,8.00,1.98
24596,-1.86,-4.25,8.98,1.04,7.98,2.22
24631,1.56,-6.16,8.00,0.88,7.98,2.43
24666,4.28,-7.09,8.59,0.64,8.04,2.47
24701,5.97,-4.72,9.33,0.55,8.07,2.29
24736,7.86,-2.71,10.28,0.54,8.16,2.09
24771,9.21,-3.15,11.52,0.68,8.24,1.93
24806,10.84,-1.28,15.42,0.72,8.28,1.90
24842,11.18,-1.73,19.00,0.90,8.27,1.93
24876,11.09,-3.40,21.90,1.07,8.22,2.09
24911,10.66,-5.38,24.65,1.03,8.20,2.30
24946,8.61,-7.89,26.16,0.90,8.23,2.41
24981,5.93,-5.84,28.16,0.74,8.22,2.50
25016,2.75,-5.88,29.02,0.49,8.25,2.45
25051,-0.28,-7.55,28.46,0.22,8.22,2.33
25086,-2.14,-5.30,28.26,0.02,8.24,2.17
25121,-5.09,-5.34,27.39,-0.12,8.32,1.95
25156,-6.79,-2.43,26.14,-0.20,8.42,1.74
25191,-7.26,-2.11,22.55,-0.28,8.51,1.48
25226,-7.27,0.58,19.36,-0.31,8.56,1.18
25261,-7.16,3.79,16.83,-0.21,8.63,0.92
25296,-3.18,4.73,14.31,0.05,8.63,0.82
25331,-1.76,1.85,11.65,0.36,8.56,0.93
25366,-0.64,0.54,9.70,0.53,8.48,1.16
25401,2.79,-1.24,10.22,0.55,8.49,1.38
25436,5.11,-3.43,10.50,0.51,8.48,1.47
25471,8.15,-3.15,11.26,0.56,8.52,1.41
25506,9.50,-2.83,14.71,0.67,8.54,1.30
25541,10.73,-0.55,17.85,0.85,8.52,1.23
25576,12.38,-1.84,19.95,0.95,8.47,1.23
25611,12.13,-5.88,22.18,1.01,8.44,1.22
25646,10.20,-5.56,25.34,0.94,8.46,1.11
25681,7.72,-4.40,26.97,0.93,8.45,0.85
25716,5.43,-3.51,27.86,1.04,8.42,0.69
25751,2.83,-2.75,29.03,1.27,8.46,0.62
25785,0.41,-2.44,30.14,1.60,8.43,0.71
25820,-1.79,-4.06,28.71,1.82,8.44,0.86
25855,-4.91,-5.10,26.98,1.98,8.41,1.11
25890,-6.73,-4.84,24.07,1.98,8.38,1.42
25925,-7.59,-6.84,21.27,1.89,8.36,1.69
25960,-8.81,-7.12,18.81,1.70,8.42,1.91
25995,-8.43,-5.57,16.29,1.50,8.47,2.03
26030,-4.49,-4.40,13.68,1.26,8.50,2.02
26066,-2.62,-4.13,11.36,1.10,8.57,1.91
26100,1.54,-3.38,10.48,1.03,8.63,1.88
26135,5.26,-3.76,11.54,0.98,8.67,1.88
26170,6.61,-4.14,12.41,0.90,8.66,1.84
26205,10.01,-2.87,13.76,0.82,8.68,1.84
26240,11.24,-4.06,16.04,0.72,8.65,1.82
26275,11.23,-4.98,18.46,0.55,8.63,1.74
26310,11.24,-4.68,21.21,0.49,8.57,1.63
26345,10.96,-5.02,23.69,0.53,8.55,1.54
26380,9.80,-4.86,26.60,0.49,8.59,1.39
26414,7.34,-5.15,28.48,0.53,8.60,1.26
26454,5.05,-3.08,30.51,0.55,8.60,1.22
26489,1.45,-3.53,30.12,0.59,8.56,1.29
26524,-1.67,-6.16,29.07,0.46,8.53,1.49
26559,-3.92,-3.97,26.34,0.24,8.49,1.59
26594,-4.93,-2.60,24.56,0.13,8.47,1.50
26629,-6.18,-0.67,22.62,0.08,8.47,1.35
26664,-6.94,-0.46,20.03,0.13,8.50,1.17
26698,-7.57,1.29,17.96,0.25,8.57,1.06
26733,-6.95,0.82,15.96,0.49,8.68,1.03
26768,-5.83,-1.05,13.69,0.71,8.73,1.04
26803,-3.66,0.09,12.81,0.87,8.73,1.06
26838,1.24,0.09,12.49,0.99,8.73,1.13
26873,6.06,1.33,12.74,1.23,8.73,1.07
26908,9.05,0.74,14.17,1.45,8.73,1.15
26943,11.20,-0.41,16.02,1.61,8.73,1.27
26978,12.14,-2.03,18.73,1.71,8.73,1.45
27013,12.22,-4.24,21.33,1.65,8.69,1.63
27048,11.93,-5.07,24.05,1.49,8.72,1.72
27083,10.14,-7.30,26.48,1.34,8.73,1.75
27118,8.31,-7.38,28.94,1.19,8.73,1.61
27153,5.89,-7.51,29.85,1.11,8.73,1.38
27188,3.30,-6.08,29.99,1.20,8.73,1.16
27223,-0.09,-5.96,29.75,1.46,8.70,1.11
27258,-3.30,-5.55,29.95,1.63,8.72,1.21
27293,-5.39,-7.34,28.39,1.68,8.73,1.49
27329,-6.69,-8.10,25.53,1.55,8.73,1.74
27363,-7.46,-5.64,23.23,1.41,8.73,1.92
27398,-8.15,-5.68,19.24,1.38,8.73,2.07
27433,-5.07,-8.01,16.79,1.39,8.73,2.31
27468,-3.65,-8.22,14.08,1.21,8.73,2.50
27503,-1.64,-6.93,12.71,0.97,8.73,2.47
27539,2.24,-7.71,12.75,0.77,8.73,2.35
27573,5.09,-5.26,14.88,0.74,8.73,2.15
27608,10.47,-2.73,17.14,0.69,8.73,2.03
27643,12.27,-3.18,18.60,0.81,8.73,1.90
27678,12.53,-3.33,21.72,0.90,8.73,1.85
27714,12.86,-4.72,23.96,0.90,8.73,1.84
27748,12.00,-5.05,26.49,0.87,8.73,1.85
27783,10.36,-4.99,29.19,0.85,8.73,1.82
27818,7.34,-5.60,30.99,0.89,8.73,1.86
27853,4.01,-5.73,32.06,0.90,8.73,1.82
27888,0.90,-6.05,32.12,0.83,8.73,1.73
27923,-1.34,-5.37,29.70,0.79,8.73,1.62
27958,-4.85,-5.72,28.83,0.89,8.73,1.52
27993,-6.64,-2.50,28.36,0.88,8.73,1.50
28028,-7.01,-3.39,24.78,0.84,8.73,1.51
28063,-7.08,-3.60,21.12,0.65,8.73,1.39
28098,-4.86,0.88,18.07,0.55,8.73,1.19
28133,-2.72,2.26,15.92,0.62,8.73,1.00
28168,-1.14,4.90,13.39,0.79,8.73,0.77
28203,0.39,2.75,13.24,1.00,8.73,0.90
28238,5.07,-0.41,12.95,1.11,8.73,1.16
28273,6.97,-2.56,13.42,1.08,8.73,1.41
28308,10.26,-5.53,16.23,1.02,8.73,1.53
28344,11.84,-5.53,19.98,0.97,8.73,1.57
28378,12.37,-4.42,22.46,0.94,8.73,1.56
28413,12.10,-4.36,25.57,0.95,8.73,1.56
28448,10.12,-4.75,27.96,0.97,8.73,1.60
28488,8.17,-6.63,29.85,0.95,8.73,1.62
28524,4.65,-5.59,31.05,0.97,8.73,1.69
28558,2.24,-5.53,32.95,1.08,8.73,1.70
28593,-0.98,-6.01,32.47,1.18,8.73,1.73
28628,-4.64,-5.09,32.03,1.27,8.73,1.70
28663,-5.61,-5.29,29.08,1.58,8.73,1.73
28698,-5.89,-6.94,25.32,1.77,8.73,1.96
28733,-7.73,-8.48,22.54,1.76,8.73,2.24
28768,-8.40,-7.70,19.55,1.52,8.73,2.46
28803,-5.22,-6.67,16.10,1.29,8.73,2.48
28838,-0.26,-4.32,14.06,0.98,8.73,2.24
28874,2.63,-2.88,14.31,0.88,8.73,1.97
28908,7.94,-3.00,15.26,0.91,8.73,1.80
28943,8.21,-5.32,15.00,0.81,8.73,1.74
28978,9.83,-5.93,16.81,0.72,8.73,1.76
29013,11.48,-6.37,20.29,0.53,8.73,1.69
29048,11.73,-6.26,23.35,0.36,8.73,1.54
29083,12.28,-4.62,27.18,0.41,8.73,1.43
29118,11.19,-2.62,30.79,0.51,8.73,1.35
29153,8.38,-4.61,31.95,0.67,8.73,1.31
29188,5.25,-5.07,34.12,0.79,8.73,1.39
29223,2.65,-3.31,36.49,0.93,8.73,1.46
29258,-0.43,-4.23,33.91,0.97,8.73,1.43
29292,-3.21,-2.25,32.61,1.13,8.73,1.42
29328,-5.62,-3.97,29.39,1.21,8.73,1.52
29362,-6.48,-3.57,25.72,1.24,8.73,1.61
29397,-7.46,-3.74,22.53,1.22,8.73,1.70
29432,-7.86,-2.15,20.09,1.15,8.73,1.71
29467,-4.84,-1.23,17.81,1.09,8.73,1.71
29502,-1.29,-1.45,15.49,1.12,8.73,1.63
29537,3.32,-3.00,15.05,1.13,8.73,1.69
29572,7.28,-3.72,15.83,1.10,8.73,1.75
29607,9.05,-2.58,15.94,1.03,8.73,1.81
29642,10.29,-4.37,17.30,1.05,8.73,1.83
29677,11.07,-5.19,20.81,0.98,8.73,1.82
29712,12.09,-4.97,24.77,0.96,8.73,1.79
29747,11.86,-7.81,28.62,0.92,8.73,1.85
29782,10.91,-6.62,31.56,0.80,8.73,1.71
29818,7.38,-5.11,34.69,0.82,8.73,1.53
29852,4.46,-5.99,34.92,0.89,8.73,1.36
29887,0.99,-6.49,33.78,1.07,8.73,1.37
29922,-1.70,-3.58,34.40,1.11,8.73,1.48
29957,-6.12,-6.17,32.63,1.05,8.73,1.64
29992,-5.61,-4.60,27.94,0.87,8.73,1.66
30027,-3.80,-3.31,22.70,0.81,8.73,1.63
30062,-5.68,-1.71,20.01,0.76,8.73,1.56
30097,-4.08,-0.56,18.16,0.75,8.73,1.52
30132,-3.08,-0.73,16.51,0.85,8.73,1.59
30167,0.16,-3.00,15.00,0.86,8.73,1.67
30202,3.34,-2.66,14.88,0.80,8.73,1.76
30237,5.78,-2.38,15.71,0.82,8.73,1.76
30272,8.93,-4.14,16.47,0.67,8.73,1.83
30307,10.14,-7.35,20.17,0.55,8.73,1.86
30343,11.67,-4.90,23.14,0.33,8.73,1.67
30377,13.08,-5.62,26.26,0.45,8.73,1.58
30412,11.99,-3.75,30.50,0.51,8.73,1.55
30447,8.79,-3.04,33.11,0.68,8.73,1.54
30482,6.12,-6.08,33.85,0.74,8.73,1.67
30522,2.63,-5.00,34.03,0.77,8.73,1.69
30557,-0.62,-5.97,33.33,0.69,8.73,1.70
30592,-3.69,-3.68,32.74,0.75,8.73,1.61
30627,-5.83,-3.33,30.46,0.94,8.73,1.56
30662,-6.46,-3.01,27.04,1.05,8.73,1.60
30697,-6.73,-2.78,23.31,1.07,8.73,1.64
30732,-6.45,-1.38,20.06,1.07,8.73,1.65
30767,-5.55,-3.44,17.22,1.08,8.73,1.70
30802,-1.44,-1.79,16.26,1.01,8.73,1.62
30837,0.68,-1.33,15.70,1.09,8.73,1.61
30872,4.91,-4.01,14.98,1.12,8.73,1.70
30907,9.35,-3.68,17.93,0.98,8.73,1.88
30942,10.52,-4.42,20.11,0.96,8.73,1.94
30977,11.50,-6.38,22.78,0.92,8.73,1.96
31012,13.24,-4.91,26.11,0.93,8.73,1.96
31047,12.08,-7.29,28.57,1.11,8.73,2.08
31082,10.23,-7.47,31.32,0.95,8.73,2.20
31117,8.09,-6.56,33.48,0.88,8.73,2.26
31152,4.66,-6.95,34.97,0.71,8.73,2.23
31187,1.40,-8.13,34.85,0.56,8.73,2.13
31222,-1.38,-5.87,34.06,0.48,8.73,2.03
31257,-4.82,-3.88,31.16,0.53,8.73,1.85
31292,-5.94,-5.31,28.32,0.47,8.73,1.76
31327,-5.61,-3.28,25.79,0.40,8.73,1.60
31362,-5.87,-2.30,22.51,0.45,8.73,1.47
31397,-3.70,-0.26,20.70,0.55,8.73,1.35
31431,-6.40,0.14,18.86,0.73,8.73,1.32
31466,-3.05,0.81,17.81,0.94,8.73,1.30
31501,3.45,-1.22,18.22,1.03,8.73,1.39
31536,5.56,-0.91,19.66,1.26,8.73,1.42
31571,10.80,-2.04,21.36,1.42,8.73,1.56
31606,13.33,-3.63,26.39,1.53,8.73,1.75
31641,14.16,-6.96,29.84,1.46,8.73,1.92
31676,12.65,-10.00,32.14,1.37,8.73,2.00
31711,10.26,-8.77,33.83,1.12,8.73,1.91
31746,8.93,-7.02,35.53,0.99,8.73,1.65
31781,4.19,-7.74,34.91,0.99,8.73,1.46
31816,-0.15,-7.81,36.19,1.18,8.73,1.49
31852,-4.25,-7.59,35.82,1.18,8.73,1.62
31886,-5.30,-6.58,33.27,1.04,8.73,1.80
31921,-5.72,-6.55,29.05,0.85,8.73,1.79
31956,-6.96,-3.46,26.57,0.81,8.73,1.70
31991,-4.49,-3.79,23.11,0.91,8.73,1.75
32026,-1.04,-4.04,19.60,1.03,8.73,1.76
32061,0.32,-2.38,17.92,1.04,8.73,1.65
32096,2.05,-0.14,17.49,1.14,8.73,1.47
32131,6.28,0.46,18.01,1.38,8.73,1.28
32166,7.25,-0.67,17.64,1.65,8.73,1.41
32201,11.50,-4.06,20.25,1.70,8.73,1.66
32236,12.87,-8.21,25.37,1.56,8.73,1.95
32271,13.56,-8.86,28.34,1.27,8.73,2.00
32306,11.74,-10.35,31.00,1.16,8.73,2.06
32341,8.98,-8.06,33.43,1.02,8.73,2.14
32376,5.62,-7.15,34.28,0.94,8.73,2.37
32411,2.92,-10.98,35.77,0.57,8.73,2.67
32446,-0.45,-11.55,37.58,0.28,8.73,2.62
32481,-3.95,-5.69,38.60,-0.08,8.73,2.44
32516,-6.58,-6.11,34.85,-0.38,8.73,2.09
32556,-8.73,-0.36,33.65,-0.37,8.73,1.64
32591,-9.56,0.68,29.72,-0.16,8.73,1.24
32626,-5.79,5.00,26.97,0.15,8.73,0.99
32661,-0.69,2.44,23.81,0.62,8.73,0.91
32696,2.16,1.66,22.24,1.00,8.73,1.02
32731,6.40,1.75,24.37,1.28,8.73,1.26
32766,11.31,-1.16,26.83,1.63,8.73,1.44
32801,14.13,-4.26,30.56,1.85,8.73,1.70
32837,15.60,-8.26,31.79,1.98,8.73,1.99
32871,13.05,-12.04,34.74,1.98,8.73,2.43
32906,9.58,-11.97,37.66,1.71,8.73,2.57
32941,7.51,-12.24,40.63,1.39,8.73,2.50
32976,4.74,-10.69,41.09,1.00,8.73,2.26
33011,-0.69,-11.73,39.02,1.11,8.73,2.24
33046,-4.34,-12.00,37.20,0.83,8.73,2.34
33081,-4.71,-10.10,33.57,0.50,8.73,2.27
33116,-4.96,-3.09,30.43,0.24,8.73,1.97
33151,-8.45,-2.41,28.77,0.25,8.73,1.71
33186,-6.45,-0.47,26.06,0.43,8.73,1.57
33221,-0.93,-0.47,23.69,0.67,8.73,1.43
33256,4.32,-0.75,22.37,0.91,8.73,1.24
33291,10.41,0.09,21.98,1.24,8.73,1.13
33327,12.23,0.89,24.19,1.52,8.73,1.22
33361,12.19,-3.01,25.43,1.85,8.73,1.47
33396,13.18,-8.02,27.63,1.90,8.73,1.81
33431,12.10,-12.11,31.68,1.69,8.73,2.10
33466,11.38,-10.52,36.38,1.42,8.73,2.15
33501,9.24,-12.37,37.72,1.25,8.73,2.21
33536,3.54,-10.54,38.57,1.08,8.73,2.53
33571,1.35,-12.66,38.45,0.75,8.73,2.64
33606,-2.81,-9.59,36.43,0.39,8.73,2.66
33641,-6.27,-3.59,38.80,0.13,8.73,2.39
33676,-7.30,-5.06,36.28,0.31,8.73,2.19
33711,-4.75,-2.47,29.76,0.51,8.73,1.92
33746,-3.64,-2.75,25.63,0.55,8.73,1.73
33781,-2.39,-1.73,22.82,0.66,8.73,1.48
33817,2.92,0.25,20.96,0.82,8.73,1.20
33851,6.96,1.87,20.25,1.22,8.73,0.87
33886,8.56,3.12,21.22,1.62,8.73,0.82
33921,10.91,-0.28,22.77,1.88,8.73,1.17
33956,12.15,-7.28,25.04,1.77,8.73,1.71
33991,14.80,-11.37,28.25,1.49,8.73,1.93
34026,11.67,-7.45,34.21,1.24,8.73,1.97
34061,9.30,-11.94,35.24,1.29,8.73,2.25
34096,6.50,-10.93,37.32,1.26,8.73,2.68
34131,3.89,-12.95,36.40,0.79,8.73,2.95
34166,-0.00,-12.00,36.54,0.42,8.73,2.88
34201,-7.69,-14.55,39.04,0.23,8.73,2.64
34236,-5.60,-3.87,40.74,0.20,8.73,2.41
34271,-5.53,-5.28,32.76,0.54,8.73,2.22
34307,-4.53,-6.71,26.39,0.54,8.73,1.98
34342,0.53,-1.68,21.61,0.47,8.73,1.61
34376,5.47,-0.63,19.55,0.52,8.73,1.12
34411,5.15,5.34,18.61,0.84,8.73,0.74
34446,6.46,4.71,18.69,1.28,8.73,0.60
34481,6.29,-0.44,19.12,1.63,8.73,0.88
34516,9.15,-3.20,21.06,1.54,8.73,1.35
34551,10.72,-7.16,26.77,1.43,8.73,1.62
34591,14.42,-3.24,30.09,1.31,8.73,1.77
34626,11.63,-12.35,34.51,1.29,8.73,2.04
34661,8.23,-8.05,36.40,1.40,8.73,2.52
34696,5.89,-11.95,37.00,1.15,8.73,2.92
34731,0.65,-13.05,36.58,0.59,8.73,3.05
34766,-0.91,-9.40,39.63,0.41,8.73,2.72
34801,-3.24,-8.15,35.25,0.27,8.73,2.43
34836,-5.45,-5.25,32.60,0.35,8.73,2.10
34871,-8.54,-4.39,30.27,0.52,8.73,1.92
34906,-5.20,-4.70,26.57,0.46,8.73,1.63
34941,-1.70,0.12,22.84,0.59,8.73,1.28
34976,2.29,2.49,19.31,0.77,8.73,0.81
35011,4.50,4.42,17.84,1.18,8.73,0.43
35046,7.34,4.65,19.58,1.62,8.73,0.63
35081,9.77,0.49,18.95,1.92,8.73,1.01
35116,13.08,-3.58,21.62,2.14,8.73,1.48
35151,9.57,-3.14,26.33,2.19,8.73,1.93
35186,10.95,-13.44,32.60,2.21,8.73,2.37
35221,13.27,-8.97,37.30,1.88,8.73,2.67
35255,6.60,-10.24,42.37,1.51,8.73,2.60
35290,4.87,-14.08,39.52,1.00,8.73,2.70
35326,0.26,-15.69,37.29,0.60,8.73,3.06
35360,-4.97,-12.71,37.50,-0.04,8.73,2.97
35395,-6.03,-6.26,36.27,-0.07,8.73,2.50
35430,-7.51,-5.55,32.04,-0.03,8.73,2.19
35465,-6.78,-3.70,28.45,-0.00,8.73,1.81
35500,-5.48,-1.73,25.04,0.07,8.73,1.51
35535,-1.58,1.34,23.27,0.30,8.73,1.24
35570,5.08,1.04,22.07,0.67,8.73,1.04
35604,10.17,0.28,20.43,0.96,8.73,1.01
35639,11.96,-1.45,22.83,1.23,8.73,1.12
35674,13.20,-8.46,23.23,1.21,8.73,1.44
35709,11.82,-4.13,24.09,1.06,8.73,1.41
35744,11.36,-5.45,27.48,1.18,8.73,1.74
35779,10.51,-8.55,31.42,1.37,8.73,1.86
35815,8.40,-9.14,35.19,1.35,8.73,2.34
35849,5.45,-9.09,36.85,1.21,8.73,2.77
35884,2.34,-11.86,36.41,0.69,8.73,3.07
35919,-2.37,-12.55,36.04,0.26,8.73,3.07
35954,-4.08,-7.81,32.92,-0.11,8.73,2.80
35989,-5.22,-4.34,30.46,-0.27,8.73,2.41
36024,-7.13,-2.01,29.02,-0.19,8.73,2.05
36059,-9.87,-2.60,26.20,-0.07,8.73,1.81
36094,-5.01,-1.49,22.05,0.26,8.73,1.76
36129,0.38,-4.85,18.33,0.32,8.73,1.67
36164,2.74,-5.26,17.34,0.40,8.73,1.65
36199,6.53,-1.24,17.57,0.37,8.73,1.53
36234,7.17,-4.79,17.55,0.49,8.73,1.46
36268,9.76,-4.87,20.63,0.49,8.73,1.37
36303,11.38,-5.68,22.71,0.56,8.73,1.25
36339,12.10,-6.43,27.07,0.51,8.73,1.10
36373,10.74,-6.32,31.05,0.54,8.73,0.90
36408,11.66,-4.48,32.74,0.74,8.73,0.69
36443,7.41,-5.20,34.48,1.04,8.73,0.58
36478,3.58,-4.51,35.48,1.28,8.73,0.64
36513,0.86,-5.70,35.30,1.64,8.73,0.93
36548,-1.72,-5.24,34.28,1.71,8.73,1.22
36583,-3.80,-7.06,32.17,1.69,8.73,1.52
36623,-6.53,-7.11,29.77,1.54,8.73,1.78
36658,-6.65,-8.13,25.94,1.39,8.73,1.92
36693,-6.37,-4.75,22.98,0.92,8.73,1.85
36728,-2.13,-0.72,20.25,0.81,8.73,1.57
36763,-0.97,-0.02,17.79,0.77,8.73,1.45
36798,0.98,-1.77,17.32,0.93,8.73,1.53
36833,3.61,-4.28,16.94,0.90,8.73,1.76
36868,4.72,-1.15,18.82,0.93,8.73,1.83
36903,8.74,-5.49,20.27,0.90,8.73,1.90
36938,12.35,-4.47,25.64,0.95,8.73,1.88
36973,13.96,-6.28,29.19,0.82,8.73,1.90
37008,12.79,-6.84,32.47,0.93,8.73,1.84
37043,10.63,-7.07,33.89,0.79,8.73,1.79
37078,7.68,-4.74,35.57,0.93,8.73,1.74
37113,3.96,-6.09,38.69,1.02,8.73,1.55
37148,0.55,-3.92,38.92,1.30,8.73,1.28
37183,-2.21,-5.45,35.67,1.43,8.73,1.33
37218,-5.15,-5.22,33.85,1.51,8.73,1.56
37253,-6.80,-7.27,31.03,1.31,8.73,1.72
37288,-7.59,-5.79,28.34,1.07,8.73,1.81
37324,-5.94,-1.96,25.89,1.03,8.73,1.69
37358,-3.48,-3.19,23.02,1.00,8.73,1.73
37393,1.08,-2.86,21.10,1.15,8.73,1.90
37428,4.53,-6.47,20.57,1.18,8.73,2.03
37464,7.32,-1.95,21.90,1.09,8.73,2.04
37498,11.94,-2.86,23.30,1.18,8.73,2.02
37533,13.03,-5.50,26.24,1.29,8.73,2.09
37568,13.28,-3.60,29.66,1.46,8.73,2.18
37603,11.54,-8.86,32.36,1.37,8.73,2.44
37638,11.16,-8.53,36.06,1.31,8.73,2.52
37673,7.76,-8.47,38.19,1.11,8.73,2.52
37708,4.74,-9.38,38.70,0.99,8.73,2.42
37743,0.66,-6.63,38.34,0.89,8.73,2.26
37778,-2.56,-7.95,36.65,0.88,8.73,2.11
37814,-5.12,-4.72,35.59,0.99,8.73,2.04
37848,-5.25,-5.61,30.43,0.90,8.73,1.96
37884,-6.11,-6.59,28.02,0.78,8.73,1.93
37918,-8.31,-2.17,26.44,0.79,8.73,1.74
37953,-2.21,-1.84,23.61,0.77,8.73,1.67
37988,1.77,0.98,21.62,0.88,8.73,1.50
38023,4.44,-0.83,21.02,1.02,8.73,1.50
38058,7.07,-1.82,21.98,1.17,8.73,1.53
38093,11.28,-3.22,24.34,1.04,8.73,1.62
38128,12.94,-8.58,26.28,0.93,8.73,1.72
38163,13.17,-7.16,30.16,0.68,8.73,1.52
38198,11.67,-8.83,33.12,0.41,8.73,1.30
38233,10.63,-4.50,35.96,0.61,8.73,1.04
38268,8.06,-3.81,38.42,0.84,8.73,1.00
38303,4.66,-5.77,40.55,1.06,8.73,1.19
38339,0.49,-7.75,40.61,1.32,8.73,1.36
38373,-2.37,-2.55,40.43,1.43,8.73,1.49
38408,-5.20,-7.52,37.17,1.50,8.73,1.66
38443,-5.06,-5.97,32.89,1.48,8.73,1.84
38478,-5.85,-5.99,28.78,1.35,8.73,1.87
38513,-4.75,-2.46,25.91,1.26,8.73,1.85
38548,-3.27,-2.59,23.74,1.25,8.73,1.77
38583,1.32,-0.81,23.18,1.30,8.73,1.66
38618,6.92,1.39,23.33,1.42,8.73,1.64
38658,9.98,0.05,24.94,1.63,8.73,1.74
38693,11.80,-6.36,26.15,1.68,8.73,1.95
38728,13.44,-7.60,29.15,1.61,8.73,2.10
38763,13.20,-4.78,33.44,1.51,8.73,2.22
38798,10.77,-7.96,36.08,1.39,8.73,2.40
38832,8.82,-10.39,38.47,1.26,8.73,2.51
38867,5.16,-10.27,39.49,1.11,8.73,2.59
38902,2.30,-9.91,41.36,0.85,8.73,2.53
38937,-1.43,-8.27,40.32,0.72,8.73,2.44
38972,-3.51,-6.28,38.07,0.74,8.73,2.28
39007,-3.94,-5.07,33.60,0.81,8.73,2.18
39042,-3.52,-7.11,29.19,0.78,8.73,2.09
39077,-5.67,-3.60,27.36,0.65,8.73,2.03
39112,-4.26,-3.39,24.15,0.69,8.73,1.97
39147,1.28,-3.22,22.01,0.74,8.73,1.91
39182,4.88,-7.39,20.66,0.70,8.73,2.08
39217,7.69,-6.98,23.08,0.45,8.73,2.23
39251,11.32,-8.54,25.10,0.28,8.73,2.14
39286,12.00,-8.81,26.55,0.30,8.73,1.94
39321,12.21,-4.03,30.81,0.52,8.73,1.76
39357,12.04,-3.62,35.17,0.76,8.73,1.75
39391,10.89,-6.30,38.71,0.94,8.73,1.83
39426,7.81,-6.59,41.92,0.97,8.73,1.98
39461,4.67,-9.08,42.10,1.07,8.73,1.91
39496,0.19,-6.71,41.70,1.16,8.73,1.84
39531,-2.59,-6.49,40.16,1.21,8.73,1.84
39566,-5.83,-6.65,36.66,1.34,8.73,1.96
39601,-6.73,-6.21,33.00,1.26,8.73,2.05
39636,-5.72,-6.90,28.78,1.22,8.73,2.06
39671,-1.92,-3.14,24.71,1.08,8.73,2.08
39706,1.21,-4.41,22.54,1.02,8.73,1.96
39741,2.19,-3.15,22.04,0.96,8.73,1.94
39776,3.43,-6.91,19.11,1.04,8.73,1.95
39811,8.88,-4.39,23.17,0.96,8.73,2.06
39846,12.18,-6.47,27.08,0.87,8.73,2.02
39881,13.69,-5.98,29.41,0.80,8.73,2.06
39916,12.32,-7.77,32.33,0.87,8.73,2.08
39951,11.41,-5.71,36.82,0.98,8.73,2.22
39986,9.02,-7.61,39.34,0.99,8.73,2.30
40021,5.14,-9.36,40.37,0.86,8.73,2.40
40056,2.18,-8.43,39.74,0.71,8.73,2.37
40091,-1.52,-3.74,40.05,0.69,8.73,2.18
40126,-4.87,-5.19,38.67,0.81,8.73,2.02
40161,-5.29,-6.25,33.90,1.02,8.73,1.99
40196,-4.58,-5.96,28.68,1.00,8.73,1.98
40231,-4.89,-3.92,25.45,0.98,8.73,1.89
40266,-3.85,-2.55,23.71,0.95,8.73,1.84
40301,-0.34,-1.78,22.17,1.00,8.73,1.75
40337,2.79,-2.75,21.94,1.01,8.73,1.81
40371,6.40,-4.58,22.22,1.17,8.73,1.82
40406,11.53,-5.09,25.23,1.22,8.73,1.85
40441,13.93,-3.56,29.25,1.22,8.73,1.90
40476,14.07,-6.89,32.82,1.04,8.73,1.94
40511,12.84,-9.17,35.47,1.04,8.73,1.94
40546,9.94,-6.73,38.45,1.00,8.73,1.81
40580,7.87,-6.60,40.13,1.00,8.73,1.81
40615,3.73,-8.58,40.62,1.05,8.73,1.81
40650,-0.02,-6.22,39.77,1.16,8.73,1.84
40689,-3.83,-5.79,37.48,1.13,8.73,1.92
40724,-6.99,-5.17,35.17,1.01,8.73,1.98
40759,-6.88,-6.44,30.00,0.87,8.73,2.01
40794,-6.84,-3.49,25.71,0.82,8.73,1.82
40830,-5.17,-0.69,24.35,0.83,8.73,1.84
40864,2.20,-2.18,21.59,0.86,8.73,1.82
40899,1.57,-3.62,19.13,0.95,8.73,1.79
40934,4.10,-1.92,20.16,1.01,8.73,1.81
40969,7.11,-5.20,21.05,0.93,8.73,1.86
41004,9.65,-7.22,23.12,0.98,8.73,1.90
41039,11.31,-4.48,27.75,0.91,8.73,1.81
41074,13.05,-6.84,31.06,0.81,8.73,1.82
41109,12.58,-7.23,35.63,0.92,8.73,1.76
41144,9.93,-5.41,38.20,0.92,8.73,1.67
41179,5.95,-6.95,38.07,0.93,8.73,1.71
41214,2.35,-6.78,37.89,1.02,8.73,1.69
41249,-0.30,-3.48,38.57,1.00,8.73,1.74
41284,-3.89,-8.76,35.64,1.12,8.73,1.78
41319,-5.68,-3.34,34.35,1.08,8.73,1.80
41354,-6.94,-4.62,31.45,1.04,8.73,1.90
41389,-8.12,-5.98,26.88,1.02,8.73,1.82
41424,-4.91,-1.06,23.79,0.94,8.73,1.87
41459,0.36,-3.55,20.64,0.99,8.73,1.86
41494,2.23,-4.64,19.75,0.99,8.73,1.88
41529,6.71,-2.35,20.45,1.07,8.73,1.81
41564,8.52,-5.12,20.41,1.01,8.73,1.91
41599,11.02,-7.87,22.95,1.07,8.73,1.95
41634,12.99,-4.91,27.00,1.03,8.73,1.92
41669,13.15,-6.86,30.36,0.87,8.73,1.93
41704,11.71,-6.67,34.74,0.97,8.73,1.89
41739,9.22,-6.81,37.03,0.88,8.73,1.79
41774,5.83,-8.06,36.94,0.94,8.73,1.84
41809,2.79,-5.23,37.58,0.99,8.73,1.76
41845,-0.88,-8.69,36.96,0.94,8.73,1.79
41879,-3.64,-3.37,36.86,1.02,8.73,1.78
41914,-5.77,-6.35,33.37,1.01,8.73,1.81
41949,-6.47,-4.01,29.09,0.95,8.73,1.74
41984,-5.87,-1.07,25.56,0.81,8.73,1.67
42019,-8.10,-1.91,23.33,0.94,8.73,1.52
42054,-2.31,1.62,22.48,0.90,8.73,1.32
42089,3.07,1.55,19.95,1.09,8.73,1.28
42124,8.08,-1.81,19.03,1.27,8.73,1.29
42159,8.63,0.27,20.23,1.28,8.73,1.48
42194,10.47,-6.62,21.50,1.33,8.73,1.70
42229,11.75,-4.93,25.26,1.19,8.73,1.76
42264,13.23,-8.18,27.89,1.08,8.73,1.87
42298,12.67,-4.83,32.56,1.04,8.73,1.88
42333,10.11,-8.48,34.09,1.04,8.73,1.91
42368,7.95,-6.98,35.95,0.99,8.73,1.92
42403,3.74,-7.11,37.25,0.95,8.73,1.94
42438,1.16,-6.59,37.50,0.97,8.73,1.94
42473,-2.29,-8.58,34.73,0.92,8.73,1.97
42508,-5.17,-4.09,33.98,0.83,8.73,1.96
42543,-5.48,-6.10,29.90,0.81,8.73,1.96
42578,-5.62,-4.25,26.52,0.77,8.73,1.84
42613,-5.74,-4.87,23.43,0.70,8.73,1.81
42648,-2.94,-0.18,21.01,0.76,8.73,1.77
42683,-0.33,-1.34,18.22,0.79,8.73,1.64
42723,3.17,0.15,18.69,0.83,8.73,1.60
42758,6.51,-5.09,17.67,0.97,8.73,1.57
42793,10.65,-1.80,20.28,0.87,8.73,1.59
42828,12.09,-5.05,22.89,0.94,8.73,1.63
42863,13.24,-5.03,25.77,0.79,8.73,1.55
42898,13.09,-6.96,27.67,0.84,8.73,1.49
42933,11.93,-3.21,31.82,0.76,8.73,1.42
42968,8.98,-4.41,34.11,0.95,8.73,1.38
43004,6.13,-6.51,35.57,0.99,8.73,1.51
43038,2.76,-5.25,36.72,1.13,8.73,1.52
43073,-0.53,-6.75,35.81,1.06,8.73,1.66
43108,-3.69,-3.57,34.38,1.14,8.73,1.73
43143,-4.65,-5.46,30.95,1.11,8.73,1.84
43178,-6.65,-4.58,28.22,1.04,8.73,1.85
43213,-7.21,-5.10,24.80,0.98,8.73,1.94
43248,-5.09,-0.46,22.01,0.97,8.73,1.96
43283,-3.40,-5.65,17.86,0.99,8.73,2.05
43318,0.51,-2.28,16.70,0.89,8.73,2.03
43353,3.16,-5.72,15.69,0.84,8.73,2.07
43388,5.46,-4.90,16.39,0.69,8.73,2.02
43423,10.20,-5.53,19.60,0.60,8.73,2.02
43458,11.51,-7.26,22.24,0.46,8.73,1.93
43493,13.65,-4.78,25.20,0.41,8.73,1.74
43528,12.07,-4.92,28.17,0.43,8.73,1.67
43563,10.86,-1.52,32.53,0.53,8.73,1.53
43598,8.69,-5.85,34.04,0.65,8.73,1.48
43633,5.94,-5.65,35.62,0.71,8.73,1.54
43668,1.45,-5.81,36.85,0.83,8.73,1.62
43703,0.14,-3.56,35.26,0.71,8.73,1.67
43738,-1.74,-3.57,31.76,0.72,8.73,1.67
43773,-4.16,-3.58,30.61,0.71,8.73,1.66
43808,-7.23,-2.20,28.96,0.71,8.73,1.58
43842,-7.53,-3.75,25.09,0.74,8.73,1.53
43877,-5.23,1.26,22.18,0.70,8.73,1.43
43912,-5.05,0.79,18.51,0.92,8.73,1.42
43947,-1.39,0.42,16.50,0.96,8.73,1.37
43983,3.25,2.32,17.57,1.10,8.73,1.34
44017,7.52,-2.43,16.96,1.25,8.73,1.39
44051,10.91,0.18,18.71,1.28,8.73,1.51
44086,10.72,-3.96,21.30,1.37,8.73,1.68
44122,11.93,-7.01,24.06,1.16,8.73,1.76
44157,12.69,-3.65,27.64,1.11,8.73,1.75
44191,11.62,-7.50,30.66,1.05,8.73,1.82
44226,9.29,-4.90,34.06,1.04,8.73,1.77
44261,6.27,-7.32,34.87,1.09,8.73,1.85
44296,2.66,-6.14,35.62,1.10,8.73,1.84
44332,0.11,-5.21,35.57,1.19,8.73,1.76
44367,-3.61,-7.04,33.81,1.22,8.73,1.78
44401,-5.29,-4.83,31.24,1.34,8.73,1.83
44436,-5.67,-6.00,27.37,1.35,8.73,1.99
44471,-7.31,-5.07,24.46,1.26,8.73,2.10
44506,-6.49,-6.25,20.94,1.22,8.73,2.19
44541,-3.61,-7.42,17.18,1.05,8.73,2.31
44576,-1.35,-5.41,15.33,0.93,8.73,2.27
44611,1.46,-6.15,15.51,0.76,8.73,2.27
44646,5.73,-3.87,16.72,0.74,8.73,2.07
44681,8.32,-4.82,17.94,0.69,8.73,2.00
44716,10.00,-4.55,20.17,0.71,8.73,1.86
44756,11.34,-6.28,25.25,0.62,8.73,1.78
44791,12.24,-6.16,28.87,0.59,8.73,1.63
44827,10.92,-4.81,32.77,0.48,8.73,1.43
44861,9.25,-4.16,35.16,0.64,8.73,1.16
44896,5.85,-4.11,36.73,0.76,8.73,1.05
44931,2.39,-4.83,37.57,1.06,8.73,1.09
44966,-0.71,-3.96,37.36,1.11,8.73,1.29
45001,-4.26,-5.16,34.56,1.12,8.73,1.50
45036,-6.48,-3.72,31.88,1.01,8.73,1.58
45071,-4.57,-3.45,27.45,0.97,8.73,1.64
45106,-5.67,-0.53,24.95,0.88,8.73,1.57
45141,-4.74,-0.46,21.61,0.99,8.73,1.49
45176,-2.73,0.64,18.84,1.01,8.73,1.45
45211,-0.71,0.93,17.70,1.18,8.73,1.39
45246,2.82,0.42,18.12,1.28,8.73,1.47
45281,5.58,0.04,19.01,1.49,8.73,1.49
45317,11.01,-4.25,20.25,1.47,8.73,1.66
45351,12.75,-4.16,24.29,1.43,8.73,1.77
45386,13.60,-7.12,26.76,1.20,8.73,1.90
45421,13.07,-5.52,29.61,1.04,8.73,1.80
45456,10.31,-8.32,32.07,0.90,8.73,1.73
45491,8.89,-5.97,34.34,0.86,8.73,1.58
45526,4.98,-5.39,35.91,0.95,8.73,1.52
45561,1.81,-6.27,35.72,1.06,8.73,1.48
45596,-0.82,-4.12,35.44,1.16,8.73,1.53
45631,-4.70,-7.08,33.57,1.12,8.73,1.59
45666,-6.38,-4.10,31.24,1.05,8.73,1.67
45701,-6.73,-4.48,28.63,0.93,8.73,1.76
45736,-7.36,-2.23,26.21,0.92,8.73,1.66
45771,-5.52,-4.74,22.40,0.84,8.73,1.65
45806,-2.98,-0.33,20.30,0.89,8.73,1.58
45842,0.46,-1.29,18.51,0.91,8.73,1.61
45876,5.70,-3.09,18.55,1.01,8.73,1.63
45911,7.43,-3.42,19.02,0.91,8.73,1.71
45946,10.94,-6.84,20.40,0.97,8.73,1.78
45981,13.15,-5.35,25.27,0.78,8.73,1.71
46016,13.43,-6.89,28.05,0.79,8.73,1.67
46051,12.78,-4.49,31.62,0.75,8.73,1.60
46086,10.32,-6.39,33.82,0.94,8.73,1.56
46121,7.73,-5.67,35.60,0.97,8.73,1.61
46156,4.48,-5.52,36.95,1.09,8.73,1.72
46191,0.79,-6.50,36.95,1.08,8.73,1.84
46226,-2.14,-4.59,35.69,1.12,8.73,1.84
46261,-4.89,-5.77,33.50,1.15,8.73,1.85
46296,-5.99,-4.73,30.01,1.30,8.73,1.86
46332,-6.73,-5.56,27.69,1.37,8.73,2.04
46367,-6.97,-5.76,25.06,1.38,8.73,2.11
46401,-1.95,-6.94,20.90,1.12,8.73,2.16
46436,1.55,-2.68,17.98,1.04,8.73,2.02
46471,3.16,-1.45,18.48,0.98,8.73,1.90
46506,7.01,-4.47,17.68,1.01,8.73,1.88
46541,8.44,-2.57,18.61,0.92,8.73,1.92
46577,9.79,-7.31,20.30,0.87,8.73,1.98
46611,11.31,-7.42,25.24,0.60,8.73,1.91
46646,11.92,-8.36,29.15,0.37,8.73,1.77
46681,11.14,-5.07,33.99,0.47,8.73,1.55
46716,9.72,-4.10,36.72,0.52,8.73,1.41
46751,6.68,-6.69,37.27,0.66,8.73,1.55
46791,2.38,-7.14,37.60,0.83,8.73,1.66
46826,0.44,-3.26,36.51,0.79,8.73,1.68
46861,-3.37,-6.03,34.36,0.83,8.73,1.68
46896,-4.54,-2.73,31.42,0.75,8.73,1.61
46931,-6.23,-3.58,28.34,0.64,8.73,1.61
46967,-6.25,-0.97,24.70,0.68,8.73,1.36
47001,-3.42,1.66,22.25,0.66,8.73,1.24
47036,-2.18,0.61,19.51,0.92,8.73,1.19
47071,0.71,0.11,18.74,1.11,8.73,1.20
47106,5.37,-1.74,18.76,1.24,8.73,1.38
47141,8.45,-0.75,20.13,1.39,8.73,1.46
47176,10.64,-5.55,21.40,1.41,8.73,1.62
47211,11.93,-2.54,25.49,1.36,8.73,1.72
47246,12.61,-7.96,27.67,1.28,8.73,1.90
47281,12.02,-6.86,31.40,1.30,8.73,1.93
47317,11.18,-7.75,34.45,1.15,8.73,1.97
47351,6.85,-7.66,36.51,1.16,8.73,2.10
47386,4.29,-6.67,38.07,1.07,8.73,2.10
47421,0.92,-8.34,37.57,0.99,8.73,2.14
47456,-2.38,-6.37,34.76,0.84,8.73,2.18
47491,-4.53,-3.98,33.15,0.91,8.73,2.13
47526,-4.95,-5.21,29.36,0.90,8.73,2.09
47561,-7.04,-6.08,26.30,0.96,8.73,2.11
47596,-5.70,-3.68,22.80,0.94,8.73,2.24
47631,-2.20,-7.40,18.85,1.04,8.73,2.44
47666,1.36,-7.11,16.97,0.81,8.73,2.35
47702,2.80,-7.45,16.50,0.67,8.73,2.29
47736,6.88,-3.33,17.10,0.63,8.73,2.03
47771,8.58,-5.54,18.18,0.59,8.73,1.94
47806,10.45,-3.23,20.30,0.56,8.73,1.77
47841,11.53,-7.86,23.77,0.46,8.73,1.70
47876,11.21,-4.23,29.41,0.36,8.73,1.39
47911,11.93,-5.69,32.99,0.39,8.73,1.16
47946,9.77,-3.52,36.44,0.61,8.73,0.98
47981,5.61,-4.71,37.64,0.82,8.73,0.91
48016,2.61,-3.63,39.16,1.20,8.73,0.91
48050,0.14,-2.96,38.92,1.52,8.73,0.89
48085,-4.02,-6.23,35.86,1.80,8.73,1.04
48119,-5.30,-4.65,33.69,1.96,8.73,1.32
48154,-4.50,-7.30,28.36,1.80,8.73,1.58
48189,-6.95,-3.76,25.38,1.47,8.73,1.58
48224,-2.95,-2.69,21.74,1.27,8.73,1.41
48259,-0.96,2.90,19.29,1.22,8.73,1.09
48294,2.68,4.79,17.93,1.47,8.73,0.92
48330,5.87,2.21,17.55,1.80,8.73,1.01
48364,7.60,-2.10,18.23,1.92,8.73,1.36
48399,10.82,0.51,21.51,1.96,8.73,1.67
48434,12.09,-7.65,22.59,1.82,8.73,2.01
48469,12.04,-8.30,25.04,1.64,8.73,2.14
48504,11.71,-9.70,28.42,1.34,8.73,2.24
48539,12.29,-8.93,33.19,1.12,8.73,2.19
48574,7.50,-9.85,36.18,0.98,8.73,2.12
48609,5.32,-8.22,37.84,0.83,8.73,2.10
48644,0.20,-7.40,37.24,0.68,8.73,2.07
48679,-1.79,-7.76,36.20,0.56,8.73,1.98
48714,-4.75,-4.91,33.60,0.31,8.73,1.86
48749,-6.01,-4.13,29.77,0.17,8.73,1.67
48784,-6.44,-1.78,27.25,0.05,8.73,1.36
48825,-8.66,1.95,26.33,0.23,8.73,1.07
48859,-5.21,0.92,22.77,0.52,8.73,0.91
48893,-1.74,2.51,21.76,0.84,8.73,0.88
48927,1.09,2.22,21.45,1.14,8.73,1.01
48962,6.75,-1.16,20.43,1.24,8.73,1.35
48997,11.43,-5.23,22.86,1.26,8.73,1.63
49032,12.20,-8.33,26.56,1.21,8.73,1.78
49067,13.75,-6.66,29.11,1.06,8.73,1.84
49102,11.95,-9.20,32.53,1.09,8.73,1.90
49137,11.08,-8.19,36.11,1.14,8.73,2.03
49172,7.94,-9.68,38.33,1.14,8.73,2.25
49207,3.94,-7.97,41.27,0.96,8.73,2.50
49241,0.96,-12.26,40.57,0.81,8.73,2.57
49275,-2.23,-7.77,37.92,0.65,8.73,2.49
49310,-4.39,-4.96,35.16,0.71,8.73,2.28
49344,-6.16,-6.35,31.58,0.96,8.73,2.18
49379,-5.15,-5.58,27.58,1.16,8.73,2.16
49414,-5.50,-8.73,23.16,1.05,8.73,2.15
49449,-1.94,-7.72,20.72,0.96,8.73,2.07
49484,3.38,-3.00,21.37,0.95,8.73,1.79
49519,3.06,-2.08,20.67,1.08,8.73,1.70
49554,4.63,-5.23,18.46,1.19,8.73,1.74
49589,10.75,-5.25,23.56,1.26,8.73,1.86
49624,12.51,-7.89,24.89,1.21,8.73,1.96
49659,11.91,-7.32,28.70,1.20,8.73,2.08
49694,11.69,-6.59,32.54,1.28,8.73,2.33
49729,10.85,-8.53,35.21,1.29,8.73,2.73
49764,6.51,-11.47,37.72,1.03,8.73,3.07
49799,3.50,-11.74,39.03,0.52,8.73,3.16
49834,-0.29,-13.08,39.74,0.04,8.73,3.10
49869,-2.59,-7.18,39.20,-0.38,8.73,2.86
49904,-8.16,-5.76,40.90,-0.40,8.73,2.41
49939,-8.32,-3.66,36.39,-0.31,8.73,1.98
49974,-7.16,-2.64,32.62,0.02,8.73,1.71
50008,-3.05,-0.51,28.86,0.27,8.73,1.57
50043,3.09,-1.64,25.99,0.58,8.73,1.49
50078,2.29,-4.02,23.91,0.82,8.73,1.73
50113,5.75,-5.02,25.34,0.90,8.73,1.90
50148,11.56,-6.88,26.98,0.88,8.73,2.04
50183,12.88,-6.58,30.99,1.12,8.73,2.03
50218,14.64,-7.62,33.06,1.50,8.73,2.16
50253,14.16,-7.56,36.72,1.62,8.73,2.47
50288,10.43,-9.79,38.68,1.59,8.73,2.86
50324,6.48,-13.00,39.38,1.26,8.73,3.12
50358,2.32,-14.19,42.34,0.70,8.73,3.13
50393,-0.73,-10.79,43.13,0.45,8.73,2.89
50428,-5.13,-9.86,42.22,0.36,8.73,2.50
50463,-5.18,-8.79,38.04,0.39,8.73,2.25
50498,-4.30,-3.78,33.18,0.21,8.73,1.93
50533,-4.67,0.03,29.97,0.04,8.73,1.34
50568,-3.33,6.18,28.03,0.29,8.73,0.69
50603,-0.52,6.40,25.21,0.78,8.73,0.34
50638,5.27,6.06,26.51,1.43,8.73,0.49
50673,9.26,3.21,27.70,1.69,8.73,1.06
50708,11.48,-2.04,31.39,1.69,8.73,1.54
50743,14.20,-8.56,33.69,1.65,8.73,1.88
50778,13.30,-7.70,40.73,1.71,8.73,2.24
50813,11.96,-9.50,43.85,1.79,8.73,2.82
50853,9.80,-17.07,43.71,1.51,8.73,3.51
50888,2.47,-16.21,44.64,0.80,8.73,3.82
50923,-1.56,-11.91,49.68,0.48,8.73,3.31
50958,-4.62,-4.03,48.13,0.60,8.73,2.80
50993,-4.52,-4.47,41.84,1.07,8.73,2.60
51028,-1.33,-13.31,32.14,1.17,8.73,2.62
51063,3.06,-12.83,25.68,0.76,8.73,2.25
51098,3.78,-2.90,25.02,0.58,8.73,1.50
51133,1.73,4.65,23.02,0.87,8.73,0.97
51168,5.79,0.72,21.28,1.41,8.73,0.87
51203,8.98,-5.38,23.10,1.65,8.73,1.39
51238,14.49,-5.18,25.60,1.76,8.73,1.66
51273,15.44,-7.37,33.63,1.85,8.73,1.91
51308,13.86,-7.72,38.64,1.82,8.73,2.14
51344,11.19,-10.28,39.40,1.78,8.73,2.59
51378,6.46,-11.46,40.67,1.52,8.73,2.94
51413,3.94,-13.90,43.00,0.94,8.73,3.16
51448,0.98,-10.16,43.18,0.63,8.73,2.95
51483,-5.36,-10.57,39.25,0.67,8.73,2.49
51518,-6.22,-9.68,36.50,0.62,8.73,2.33
51553,-4.85,-6.04,33.06,0.39,8.73,2.15
51588,-2.89,-6.64,27.44,0.25,8.73,1.74
51623,-0.86,0.58,23.27,0.26,8.73,1.26
51658,1.41,3.89,21.95,0.53,8.73,0.83
51693,2.01,3.86,21.27,1.02,8.73,0.69
51728,5.99,-0.89,20.85,1.35,8.73,0.98
51763,9.52,-4.25,22.16,1.54,8.73,1.38
51798,11.95,-3.48,27.66,1.54,8.73,1.66
51833,15.03,-6.69,32.04,1.71,8.73,1.91
51868,13.54,-8.84,33.65,1.87,8.73,2.31
51903,10.46,-12.79,36.36,1.74,8.73,2.66
51938,6.47,-13.05,37.45,1.50,8.73,2.84
51973,3.58,-13.45,38.99,1.01,8.73,2.90
52008,0.95,-13.60,41.87,0.89,8.73,2.77
52043,-3.21,-11.01,37.87,0.73,8.73,2.58
52079,-3.99,-6.70,32.89,0.76,8.73,2.32
52114,-5.89,-9.36,28.17,0.66,8.73,2.13
52148,-4.06,-6.45,23.75,0.59,8.73,1.95
52183,-2.18,-2.22,20.95,0.53,8.73,1.62
52218,0.33,-1.18,19.17,0.55,8.73,1.24
52253,1.30,1.73,17.75,0.83,8.73,0.86
52288,4.06,5.78,17.84,1.18,8.73,0.69
52324,6.83,1.11,19.61,1.58,8.73,0.87
52358,12.56,-3.78,20.99,1.92,8.73,1.13
52393,14.38,-3.87,23.99,2.03,8.73,1.45
52428,13.61,-7.74,27.53,1.90,8.73,1.84
52463,12.63,-9.41,31.94,1.78,8.73,2.09
52498,11.19,-7.95,35.54,1.56,8.73,2.34
52533,7.20,-11.02,35.96,1.43,8.73,2.58
52568,3.24,-12.09,36.11,1.02,8.73,2.65
52603,-0.90,-11.82,37.04,0.76,8.73,2.65
52638,-3.82,-10.63,34.47,0.57,8.73,2.48
52673,-4.64,-6.08,29.56,0.35,8.73,2.27
52708,-5.78,-6.54,25.64,0.32,8.73,2.05
52743,-6.67,-2.79,23.36,0.18,8.73,1.77
52778,-4.84,-1.45,20.35,0.18,8.73,1.44
52813,-2.95,1.79,19.09,0.25,8.73,1.04
52848,0.27,2.39,17.01,0.58,8.73,0.81
52888,4.08,-2.15,16.41,0.89,8.73,0.84
52923,6.91,-0.83,17.48,0.96,8.73,1.07
52958,10.74,-4.22,19.12,1.06,8.73,1.26
52993,12.86,-7.55,21.95,0.97,8.73,1.32
53028,12.21,-4.75,25.75,0.96,8.73,1.30
53063,12.38,-5.75,27.35,1.11,8.73,1.30
53098,10.74,-7.53,30.28,1.18,8.73,1.35
53133,7.85,-6.52,32.87,1.24,8.73,1.43
53168,4.47,-7.48,33.15,1.28,8.73,1.52
53203,1.71,-7.30,32.56,1.34,8.73,1.46
53238,-1.11,-5.65,32.21,1.58,8.73,1.38
53273,-4.24,-8.07,30.73,1.73,8.73,1.49
53308,-5.81,-7.56,28.31,1.60,8.73,1.72
53344,-5.74,-8.54,23.98,1.22,8.73,1.85
53378,-6.00,-6.08,20.82,0.77,8.73,1.74
53413,-6.82,-3.04,19.09,0.49,8.73,1.53
53448,-4.37,-0.01,16.86,0.46,8.73,1.35
53483,-0.83,-0.28,14.93,0.63,8.73,1.37
53518,1.81,-3.77,14.23,0.71,8.73,1.62
53553,4.56,-4.65,13.77,0.67,8.73,1.75
53588,5.51,-2.44,15.24,0.66,8.73,1.71
53623,8.75,-1.13,17.76,0.89,8.73,1.64
53658,10.46,-1.56,22.36,1.10,8.73,1.68
53693,12.47,-1.91,25.51,1.39,8.73,1.84
53728,12.96,-4.70,28.80,1.68,8.73,2.17
53763,11.55,-7.82,31.29,1.44,8.73,2.36
53798,8.07,-8.12,32.25,1.28,8.73,2.28
53833,5.07,-7.84,33.14,1.14,8.73,2.06
53868,1.68,-7.59,33.76,1.15,8.73,1.89
53903,-0.82,-5.91,32.67,1.33,8.73,1.80
53938,-3.28,-4.47,31.75,1.57,8.73,1.76
53973,-5.92,-5.26,29.74,1.86,8.73,1.84
54008,-5.72,-7.73,25.78,1.93,8.73,2.08
54043,-6.88,-9.01,22.23,1.83,8.73,2.37
54078,-8.60,-9.10,18.85,1.59,8.73,2.53
54113,-5.86,-9.10,16.57,1.22,8.73,2.52
54148,-2.68,-6.36,15.95,1.02,8.73,2.45
54183,-0.02,-7.17,16.40,0.86,8.73,2.46
54218,4.82,-4.09,17.24,0.81,8.73,2.29
54253,8.72,-6.72,18.80,0.81,8.73,2.21
54288,11.37,-3.78,23.11,0.90,8.73,2.10
54324,14.34,-5.44,27.41,0.97,8.73,2.13
54358,13.64,-7.66,30.93,1.04,8.73,2.17
54393,11.11,-7.73,33.61,0.95,8.73,2.28
54428,9.33,-7.40,34.97,0.98,8.73,2.43
54463,5.88,-9.50,36.24,0.84,8.73,2.58
54498,2.38,-6.83,36.96,0.65,8.73,2.55
54533,-0.27,-7.48,35.71,0.43,8.73,2.46
54568,-3.16,-4.47,34.88,0.47,8.73,2.18
54603,-6.22,-2.47,33.20,0.80,8.73,2.03
54638,-6.76,-4.12,28.30,0.97,8.73,1.97
54673,-5.33,-6.84,23.84,1.06,8.73,2.05
54708,-4.29,-1.85,22.32,1.03,8.73,2.12
54743,-5.62,-5.38,19.71,1.01,8.73,2.06
54778,0.63,-1.59,19.63,0.96,8.73,1.75
54813,7.58,1.33,20.62,0.99,8.73,1.62
54848,8.24,-2.64,19.05,1.27,8.73,1.55
54883,11.14,-1.14,21.38,1.20,8.73,1.66
54923,11.06,-8.19,24.09,1.00,8.73,1.76
54958,12.33,-5.53,27.32,0.90,8.73,1.69
54994,12.94,-5.40,31.56,0.82,8.73,1.65
55028,11.46,-6.46,34.92,0.95,8.73,1.58
55063,7.99,-4.58,36.39,0.92,8.73,1.43
55098,4.26,-6.41,36.40,1.08,8.73,1.37
55133,1.12,-4.39,37.50,1.19,8.73,1.45
55168,-2.25,-5.60,35.45,1.35,8.73,1.52
55203,-5.35,-6.77,34.91,1.31,8.73,1.70
55238,-6.52,-6.50,32.77,1.34,8.73,1.88
55272,-5.64,-5.49,28.79,1.28,8.73,2.02
55307,-4.94,-6.39,24.50,1.27,8.73,2.07
55342,-0.84,-4.47,21.02,1.09,8.73,2.14
55377,1.96,-4.10,18.17,1.05,8.73,2.09
55412,3.17,-4.70,18.07,0.99,8.73,1.97
55447,6.87,-1.12,17.40,0.97,8.73,1.90
55482,8.93,-3.69,19.35,1.04,8.73,1.94
55517,11.37,-4.27,22.98,1.04,8.73,1.93
55552,12.58,-5.94,25.61,1.01,8.73,1.96
55587,12.81,-3.72,29.18,0.98,8.73,1.89
55622,11.78,-7.92,31.76,0.97,8.73,1.96
55657,9.11,-4.32,34.49,0.92,8.73,1.92
55692,6.15,-8.49,36.02,0.93,8.73,2.03
55727,3.11,-5.81,37.95,0.93,8.73,2.04
55762,-0.34,-7.69,35.98,0.81,8.73,2.02
55797,-3.12,-4.51,34.88,0.74,8.73,1.92
55832,-5.02,-2.90,33.76,0.86,8.73,1.88
55867,-6.24,-3.92,29.08,0.92,8.73,1.84
55902,-5.87,-4.77,24.79,1.02,8.73,1.84
55937,-4.64,-0.59,22.05,0.95,8.73,1.88
55972,-2.63,-4.60,18.46,1.04,8.73,1.93
56007,0.55,-2.39,17.18,0.92,8.73,1.81
56042,3.19,-4.64,15.61,0.89,8.73,1.94
56077,6.37,-4.03,17.54,0.81,8.73,1.89
56112,10.22,-6.55,19.58,0.71,8.73,1.99
56147,11.59,-7.03,23.07,0.48,8.73,1.95
56182,12.24,-4.78,26.04,0.52,8.73,1.84
56217,12.25,-3.80,29.99,0.58,8.73,1.81
56252,11.35,-5.55,33.41,0.80,8.73,1.88
56287,8.85,-6.22,36.25,0.80,8.73,1.93
56323,5.43,-7.74,37.73,0.84,8.73,2.11
56357,2.15,-5.89,38.62,0.79,8.73,2.16
56392,-1.71,-8.81,36.76,0.72,8.73,2.08
56427,-4.19,-1.86,36.72,0.89,8.73,1.92
56462,-4.41,-6.74,30.72,1.11,8.73,1.93
56497,-4.56,-5.95,26.63,1.24,8.73,1.96
56532,-5.72,-3.60,23.71,1.21,8.73,2.06
56567,-3.29,-6.54,20.03,1.12,8.73,2.08
56602,0.56,-3.61,19.00,1.09,8.73,1.96
56637,2.72,-0.45,18.99,1.03,8.73,1.79
56672,6.73,-1.98,19.07,1.27,8.73,1.58
56707,8.02,-1.51,20.06,1.30,8.73,1.63
56742,9.80,-3.76,20.66,1.43,8.73,1.80
56777,11.60,-6.69,24.95,1.27,8.73,1.92
56812,12.52,-5.44,30.02,1.31,8.73,2.02
56847,11.26,-6.05,33.24,1.23,8.73,2.18
56882,9.38,-7.43,35.71,1.21,8.73,2.32
56917,6.87,-8.84,38.33,1.12,8.73,2.36
56957,2.37,-8.00,38.75,1.03,8.73,2.16
56992,-0.45,-3.88,38.83,1.11,8.73,1.92
57027,-4.30,-7.47,36.12,1.45,8.73,1.79
57062,-5.25,-6.10,33.81,1.59,8.73,1.88
57096,-7.29,-9.48,29.93,1.48,8.73,2.11
57130,-6.11,-7.32,26.22,1.24,8.73,2.04
57165,-2.52,-2.04,22.81,0.90,8.73,1.86
57200,-0.86,-0.39,20.21,0.92,8.73,1.60
57235,1.11,-2.67,19.46,1.02,8.73,1.52
57270,4.47,-0.30,20.36,0.98,8.73,1.62
57305,6.65,-7.61,20.88,1.04,8.73,1.77
57341,9.83,-4.02,24.05,0.81,8.73,1.81
57375,13.08,-8.36,27.75,0.57,8.73,1.84
57410,13.12,-9.31,31.98,0.44,8.73,1.63
57444,12.49,-5.87,35.42,0.50,8.73,1.43
57479,8.53,-4.21,37.77,0.67,8.73,1.31
57514,5.98,-6.41,39.48,0.85,8.73,1.54
57549,2.57,-7.06,39.98,0.98,8.73,1.68
57584,-0.17,-4.25,39.22,0.85,8.73,1.82
57619,-4.19,-6.33,37.42,0.80,8.73,1.86
57654,-5.67,-1.87,36.02,0.89,8.73,1.81
57689,-6.02,-4.51,30.80,0.90,8.73,1.80
57724,-4.11,-2.99,25.71,0.84,8.73,1.76
57759,-2.11,-1.95,22.48,1.02,8.73,1.78
57794,0.36,-1.63,21.35,1.00,8.73,1.68
57829,2.07,-0.56,20.67,1.08,8.73,1.62
57864,5.68,-1.46,19.72,1.35,8.73,1.49
57899,8.08,-0.07,21.44,1.46,8.73,1.62
57934,10.40,-1.20,25.62,1.56,8.73,1.83
57969,12.48,-8.31,29.28,1.43,8.73,2.05
58004,12.79,-7.19,33.41,1.32,8.73,2.10
58039,11.85,-6.04,36.84,1.18,8.73,2.13
58074,8.96,-9.50,37.71,1.10,8.73,2.13
58109,5.94,-8.65,39.04,1.05,8.73,2.04
58144,1.97,-6.72,39.27,1.01,8.73,2.01
58179,-1.21,-9.32,36.55,1.00,8.73,1.97
58214,-4.49,-4.28,36.26,0.99,8.73,1.97
58249,-6.47,-7.16,32.68,0.90,8.73,1.95
58284,-6.31,-6.06,29.63,0.78,8.73,2.02
58320,-6.28,-3.69,26.75,0.91,8.73,1.99
58355,-3.39,-4.86,23.22,0.86,8.73,2.16
58390,-0.09,-6.77,21.41,0.89,8.73,2.27
58424,2.42,-8.45,20.42,0.76,8.73,2.37
58459,6.13,-7.33,19.96,0.71,8.73,2.28
58494,10.63,-4.15,23.20,0.77,8.73,2.06
58529,12.09,-2.49,27.38,0.89,8.73,2.00
58564,13.29,-8.64,30.49,0.93,8.73,2.01
58599,12.64,-5.34,34.14,1.00,8.73,1.98
58634,11.50,-7.34,36.79,0.87,8.73,1.91
58669,7.92,-7.53,38.95,0.93,8.73,1.94
58704,4.97,-6.32,39.68,0.95,8.73,1.91
58739,1.01,-7.44,38.96,0.92,8.73,1.97
58774,-2.05,-7.90,36.56,0.95,8.73,1.95
58809,-4.98,-4.20,36.03,0.84,8.73,1.95
58844,-5.96,-5.77,32.62,0.92,8.73,1.94
58879,-5.40,-6.10,28.50,0.97,8.73,1.92
58914,-5.26,-1.43,26.55,1.01,8.73,1.99
58949,-3.58,-6.01,22.74,1.05,8.73,2.05
58989,0.56,-3.37,21.60,1.05,8.73,1.96
59024,5.68,-1.75,21.61,1.00,8.73,2.00
59059,8.27,-4.81,21.08,1.13,8.73,1.95
59094,11.80,-3.68,23.96,1.27,8.73,1.96
59129,13.25,-3.13,27.24,1.41,8.73,1.99
59164,13.72,-9.11,30.10,1.31,8.73,2.16
59199,12.11,-7.50,33.93,1.24,8.73,2.17
59234,9.76,-8.60,36.13,0.98,8.73,2.07
59269,7.52,-6.57,38.16,0.98,8.73,1.99
59304,3.32,-6.78,38.84,0.95,8.73,1.89
59340,-0.24,-9.66,39.79,1.00,8.73,1.92
59374,-4.50,-9.31,38.44,0.97,8.73,1.96
59409,-5.23,-5.33,35.17,0.91,8.73,1.96
59444,-6.43,-4.21,31.79,0.80,8.73,1.92
59479,-6.87,-5.99,27.72,0.75,8.73,1.84
59514,-5.02,-0.62,25.46,0.88,8.73,1.79
59549,-3.20,-2.43,22.89,0.88,8.73,1.72
59584,1.68,-0.92,22.42,0.96,8.73,1.62
59619,6.67,-2.26,21.72,1.13,8.73,1.53
59654,10.55,-0.85,22.94,1.34,8.73,1.47
59689,13.32,-1.41,25.29,1.45,8.73,1.55
59724,14.03,-7.20,26.73,1.36,8.73,1.75
59759,13.37,-5.43,31.10,1.24,8.73,1.71
59794,11.45,-8.43,32.64,1.07,8.73,1.72
59830,9.34,-4.81,35.91,1.14,8.73,1.60
59864,6.69,-5.50,37.92,1.14,8.73,1.59
59899,3.58,-8.08,39.23,1.22,8.73,1.67
59935,0.34,-5.66,39.30,1.34,8.73,1.76
59969,-3.33,-8.29,37.47,1.31,8.73,1.84
60004,-5.95,-5.32,35.36,1.42,8.73,2.00
60039,-5.93,-7.42,29.99,1.28,8.73,2.07
60074,-6.19,-6.94,26.29,1.12,8.73,2.20
60109,-4.48,-4.74,23.51,1.11,8.73,2.21
60144,-2.48,-5.29,21.56,0.94,8.73,2.21
60179,1.24,-4.39,20.03,0.87,8.73,2.23
60214,5.85,-6.01,18.92,0.86,8.73,2.17
60249,9.41,-4.45,20.31,0.71,8.73,2.14
60284,11.51,-8.65,21.35,0.57,8.73,2.15
60319,11.49,-6.96,24.83,0.43,8.73,1.96
60355,12.60,-4.52,29.56,0.48,8.73,1.84
60389,12.58,-7.03,33.29,0.60,8.73,1.74
60424,10.45,-5.49,37.05,0.69,8.73,1.72
60459,6.50,-5.24,39.43,0.79,8.73,1.71
60494,4.48,-6.36,40.67,0.92,8.73,1.69
60529,0.47,-5.04,39.23,1.02,8.73,1.65
60564,-2.95,-5.51,36.91,1.05,8.73,1.67
60599,-4.57,-3.72,34.40,1.14,8.73,1.72
60634,-6.80,-4.51,30.06,1.02,8.73,1.73
60669,-6.26,-3.95,26.26,0.87,8.73,1.69
60704,-4.22,-0.46,23.71,0.89,8.73,1.50
60739,-2.14,1.00,21.23,0.94,8.73,1.33
60774,1.69,1.48,19.59,1.07,8.73,1.38
60809,6.42,-1.58,18.93,1.29,8.73,1.41
60844,7.47,-0.39,20.34,1.24,8.73,1.56
60879,9.74,-4.41,22.04,1.36,8.73,1.71
60914,11.70,-5.30,25.16,1.18,8.73,1.81
60949,12.46,-8.48,27.86,1.12,8.73,1.88
60984,12.62,-5.08,33.41,1.05,8.73,1.87
61024,9.79,-5.70,36.78,0.99,8.73,1.84
61059,6.86,-5.72,38.94,1.01,8.73,1.87
61094,3.82,-7.85,40.05,1.02,8.73,1.97
61129,-0.17,-6.76,39.49,1.02,8.73,1.99
61164,-3.73,-5.74,37.44,0.92,8.73,1.97
61199,-5.26,-5.15,34.49,1.05,8.73,1.99
61234,-5.99,-4.97,30.22,0.95,8.73,1.98
61269,-4.25,-6.66,25.47,0.96,8.73,2.02
61304,-4.23,-1.63,22.52,1.00,8.73,2.05
61340,-4.79,-5.81,19.59,0.89,8.73,2.07
61374,0.79,-6.41,19.03,0.83,8.73,2.20
61409,5.40,-5.61,19.42,0.71,8.73,2.17
61444,7.13,-7.21,18.52,0.46,8.73,2.14
61479,10.33,-7.57,21.69,0.39,8.73,2.05
61514,12.55,-6.35,25.89,0.22,8.73,1.84
61549,12.68,-7.17,29.25,0.17,8.73,1.63
61584,12.72,-4.81,33.66,0.30,8.73,1.42
61619,10.63,-4.27,36.95,0.48,8.73,1.27
61654,7.38,-4.52,38.90,0.65,8.73,1.24
61689,3.87,-6.10,40.32,0.87,8.73,1.28
61724,0.32,-5.73,39.94,0.94,8.73,1.43
61759,-2.71,-6.68,37.64,0.87,8.73,1.60
61794,-5.40,-3.13,34.66,0.68,8.73,1.62
61829,-5.86,-2.39,29.86,0.60,8.73,1.54
61864,-6.45,-0.74,27.31,0.61,8.73,1.37
61899,-4.30,2.05,24.27,0.57,8.73,1.24
61934,-2.13,3.13,21.81,0.84,8.73,1.14
61969,0.39,3.44,20.16,1.04,8.73,1.05
62004,4.72,1.43,19.50,1.19,8.73,1.23
62039,7.07,-1.88,20.12,1.38,8.73,1.41
62074,10.59,-3.79,21.48,1.17,8.73,1.66
62109,12.12,-5.07,25.69,1.14,8.73,1.77
62144,12.90,-6.30,28.26,0.96,8.73,1.78
62179,12.98,-7.02,31.31,1.00,8.73,1.70
62214,11.75,-5.13,34.77,0.88,8.73,1.62
62249,8.07,-7.28,35.61,1.00,8.73,1.61
62284,5.00,-5.46,37.11,1.00,8.73,1.53
62320,1.05,-6.76,37.23,1.10,8.73,1.52
62355,-1.94,-3.85,36.54,1.20,8.73,1.52
62389,-4.81,-6.71,33.66,1.39,8.73,1.65
62424,-5.48,-7.02,30.00,1.35,8.73,1.75
62459,-6.33,-6.47,26.54,1.24,8.73,1.85
62494,-7.50,-2.56,25.11,1.07,8.73,1.83
62529,-2.81,-4.99,21.32,1.01,8.73,1.81
62564,0.43,-2.35,19.70,1.00,8.73,1.78
62599,2.05,-2.13,18.68,0.97,8.73,1.86
62634,6.18,-5.54,18.45,1.07,8.73,1.86
62669,9.62,-2.31,19.57,0.91,8.73,1.91
62704,11.32,-5.92,21.68,1.08,8.73,1.92
62739,13.33,-2.80,25.90,1.17,8.73,1.87
62774,12.11,-6.68,28.63,1.24,8.73,2.01
62809,11.87,-4.35,32.66,1.23,8.73,2.06
62844,9.06,-9.30,34.27,1.13,8.73,2.10
62879,6.32,-6.19,35.65,1.00,8.73,2.01
62914,3.55,-6.68,36.21,1.06,8.73,1.90
62949,-0.03,-4.76,38.07,1.11,8.73,1.80
62984,-3.41,-4.91,35.42,1.33,8.73,1.74
63019,-5.88,-5.16,32.61,1.38,8.73,1.76
63059,-6.98,-5.57,28.40,1.36,8.73,1.89
63094,-7.35,-6.40,24.10,1.23,8.73,1.90
63129,-7.26,-3.03,22.97,1.01,8.73,1.88
63164,-4.54,-2.13,21.06,1.04,8.73,1.80
63199,-0.28,-0.39,18.52,0.97,8.73,1.63
63234,4.56,-2.25,18.12,1.07,8.73,1.64
63269,8.02,0.47,20.15,1.12,8.73,1.61
63304,10.44,-6.16,19.44,1.13,8.73,1.76
63339,12.98,-5.22,22.36,1.00,8.73,1.83
63374,12.96,-7.61,26.92,0.86,8.73,1.88
63409,12.37,-4.00,30.24,0.76,8.73,1.77
63444,10.10,-6.82,32.34,0.85,8.73,1.76
63479,8.69,-7.17,33.66,0.82,8.73,1.76
63514,4.95,-6.00,35.13,0.91,8.73,1.79
63549,2.17,-6.25,35.37,0.93,8.73,1.81
63584,-1.57,-4.78,36.23,0.94,8.73,1.84
63619,-4.32,-6.05,34.54,0.87,8.73,1.87
63654,-5.47,-3.88,30.96,1.02,8.73,1.84
63689,-5.57,-4.60,26.28,0.98,8.73,1.87
63724,-5.95,-2.14,23.96,0.99,8.73,1.85
63759,-6.92,-5.16,20.91,1.00,8.73,1.90
63794,-5.97,-3.64,19.02,0.89,8.73,1.88
63829,-0.91,-3.68,17.55,0.93,8.73,1.86
63864,4.68,-1.45,18.00,0.89,8.73,1.75
63899,7.79,-2.35,18.98,1.07,8.73,1.65
63934,12.79,-3.21,20.61,1.02,8.73,1.64
63970,14.06,-4.98,23.45,1.02,8.73,1.65
64004,13.50,-7.07,25.50,0.82,8.73,1.62
64039,12.19,-4.98,27.81,0.67,8.73,1.44
64074,10.18,-4.98,30.22,0.70,8.73,1.31
64109,8.20,-5.12,32.48,0.79,8.73,1.24
64144,5.63,-4.83,34.81,0.93,8.73,1.27
64179,2.02,-6.20,36.42,1.08,8.73,1.42
64214,-1.08,-4.22,36.62,1.09,8.73,1.53
64249,-3.85,-5.44,32.71,1.09,8.73,1.65
64284,-5.11,-4.15,30.01,1.02,8.73,1.72
64318,-6.98,-3.16,27.23,0.93,8.73,1.73
