timestamp,accelX,accelY,accelZ,gyroX,gyroY,gyroZ
160866,-0.29,4.17,-7.88,0.43,1.33,0.27
160901,0.69,4.14,-7.91,0.46,1.44,0.30
160936,0.49,3.86,-7.99,0.48,1.54,0.38
160971,1.18,4.45,-7.89,0.51,1.71,0.44
161006,1.19,5.94,-6.87,0.63,1.86,0.37
161041,3.17,4.23,-7.15,0.72,2.01,0.35
161076,3.35,3.11,-7.35,0.74,2.17,0.42
161111,3.28,5.30,-5.20,0.89,2.33,0.33
161146,5.36,3.65,-5.69,1.05,2.47,0.33
161181,4.60,0.78,-4.75,0.99,2.61,0.50
161216,5.04,-0.72,-4.47,0.76,2.79,0.75
161251,3.74,2.15,-4.38,0.69,3.04,0.87
161286,4.02,1.70,-3.71,0.83,3.48,0.86
161321,6.98,-1.47,-2.70,0.91,3.94,0.92
161356,8.47,4.10,2.59,1.01,4.21,1.02
161391,10.13,0.62,5.55,1.11,4.28,1.15
161426,10.91,-2.06,7.58,1.11,4.15,1.31
161461,9.92,-0.94,8.45,0.99,3.98,1.38
161496,10.46,-2.57,9.15,0.94,3.96,1.44
161531,8.91,-2.20,9.76,0.96,3.99,1.65
161566,8.22,-2.54,11.47,1.02,4.09,1.93
161601,6.36,-4.58,11.72,0.98,4.19,2.13
161636,6.09,-3.90,13.36,0.88,4.29,2.41
161671,3.93,-5.41,14.53,0.68,4.43,2.34
161706,2.75,-5.54,16.27,0.57,4.60,2.13
161741,1.33,-4.06,17.05,0.46,4.81,1.80
161776,-0.45,-3.10,14.71,0.40,4.94,1.42
161811,-3.25,-3.67,17.55,0.35,4.84,1.27
161846,-4.18,-4.87,16.69,0.27,4.79,1.29
161881,-2.88,-1.99,10.32,0.26,4.78,1.22
161916,-4.69,-2.79,7.35,0.23,4.62,1.07
161951,-6.81,-2.48,8.31,0.15,4.45,1.02
161986,-7.13,-3.93,7.95,-0.04,4.43,1.08
162021,-8.48,-0.11,8.57,-0.32,4.54,0.97
162056,-11.04,2.23,9.68,0.02,4.75,0.95
162091,-6.36,-3.24,4.16,0.19,4.76,0.98
162126,-10.96,-1.17,5.19,0.02,4.75,0.92
162161,-10.65,0.90,3.64,0.06,4.83,0.91
162196,-6.95,0.71,0.90,0.23,4.81,0.99
162231,-4.74,-0.80,-2.40,0.41,4.58,1.25
162266,-3.59,-0.80,-4.44,0.54,4.32,1.63
162301,-1.59,-4.29,-4.03,0.54,4.05,2.07
162336,-0.62,-4.87,-4.69,0.37,3.85,2.25
162371,0.03,-2.72,-6.17,0.22,3.75,2.41
162406,2.74,-4.36,-6.11,-0.01,3.70,2.58
162441,18.05,-1.37,-0.57,-0.18,4.10,2.54
162476,-1.73,-1.68,-5.80,-0.09,4.80,1.62
162511,-3.62,5.55,-6.25,0.10,5.18,1.26
162546,-1.36,-4.64,-2.69,-0.21,4.88,1.53
162581,0.76,-15.29,-3.74,-1.31,4.54,1.75
162616,5.99,-7.80,-1.75,-2.15,4.69,1.78
162651,8.01,0.96,3.18,-2.38,5.18,1.41
162686,6.17,6.41,7.21,-1.78,5.61,1.04
162721,9.80,4.36,8.81,-0.71,5.96,1.06
162761,10.87,1.83,12.66,-0.12,6.18,1.11
162796,9.63,-1.60,15.26,0.25,6.22,1.27
162831,8.67,-1.78,17.69,0.35,6.21,1.33
162866,7.44,-2.57,18.99,0.42,6.19,1.45
162901,5.51,-1.31,20.89,0.40,6.23,1.59
162936,3.30,-2.30,19.37,0.36,6.09,1.79
162971,1.70,-2.82,20.29,0.14,6.00,1.96
163006,-0.32,-4.59,18.62,-0.16,5.94,2.11
163041,-2.56,-2.72,20.01,-0.37,6.01,2.02
163076,-4.58,-1.60,19.67,-0.42,6.16,1.78
163111,-6.55,2.36,19.21,-0.18,6.29,1.44
163146,-8.06,-0.82,17.21,-0.04,6.40,1.23
163181,-8.79,-1.15,16.15,-0.03,6.52,1.20
163216,-8.72,-0.08,14.30,0.04,6.66,1.17
163251,-10.15,1.67,12.94,0.27,6.75,1.19
163286,-8.70,-0.24,11.14,0.55,6.91,1.36
163321,-7.64,-1.45,9.44,0.69,7.08,1.53
163356,-8.70,-2.55,7.21,0.63,7.30,1.51
163391,-4.56,-2.20,8.35,0.63,7.56,1.72
163426,-3.23,-3.70,6.11,0.50,7.73,2.09
163461,1.08,-8.69,7.28,0.27,7.91,2.26
163496,2.71,-9.27,7.44,-0.12,8.10,2.42
163531,6.80,-8.31,11.15,-0.33,8.37,2.21
163566,8.51,-2.60,16.86,-0.15,8.59,1.87
163601,10.74,-0.54,20.12,0.18,8.73,1.68
163636,12.29,-2.91,22.48,0.60,8.73,1.72
163671,12.46,-4.52,27.82,0.59,8.73,1.75
163706,9.65,-5.33,30.74,0.60,8.73,1.65
163741,6.52,-4.32,32.05,0.58,8.73,1.48
163776,3.74,-2.39,32.41,0.67,8.73,1.22
163811,0.17,-4.27,30.60,0.78,8.73,1.22
163847,-3.60,-5.60,30.45,0.74,8.73,1.41
163881,-5.20,-2.55,28.80,0.65,8.73,1.45
163916,-5.32,-2.39,25.43,0.59,8.73,1.40
163951,-6.58,-0.10,23.25,0.54,8.73,1.29
163986,-8.30,0.06,21.81,0.68,8.73,1.25
164021,-7.13,-0.48,18.83,0.84,8.73,1.30
164056,-5.64,0.37,16.94,0.95,8.73,1.38
164091,-1.44,0.60,15.29,1.06,8.73,1.40
164126,1.46,-0.77,13.60,1.18,8.73,1.32
164161,6.66,2.47,14.22,1.38,8.73,1.17
164196,9.01,3.15,16.67,1.67,8.73,1.21
164231,10.58,-2.40,18.38,1.88,8.73,1.40
164266,12.19,-5.42,19.42,1.90,8.73,1.64
164301,14.16,-6.14,22.65,1.77,8.73,1.84
164336,12.19,-7.14,26.37,1.68,8.73,2.03
164371,10.16,-6.66,29.40,1.55,8.73,2.19
164406,6.64,-8.08,32.14,1.45,8.73,2.32
164441,3.56,-9.39,33.04,1.30,8.73,2.36
164476,0.74,-7.35,33.65,1.25,8.73,2.16
164511,-2.11,-5.88,32.88,1.40,8.73,1.86
164546,-4.52,-5.08,29.76,1.75,8.73,1.72
164581,-5.49,-6.96,26.77,2.10,8.73,1.86
164616,-7.74,-9.42,24.18,2.17,8.73,2.23
164651,-8.15,-12.10,21.24,2.00,8.73,2.58
164686,-7.30,-12.19,17.98,1.60,8.73,2.77
164721,-6.32,-6.85,16.44,1.11,8.73,2.67
164756,-0.30,-5.65,15.12,0.93,8.73,2.55
164795,2.28,-7.08,13.82,0.73,8.73,2.64
164830,5.33,-10.14,14.62,0.35,8.73,2.68
164865,9.44,-5.38,16.25,0.21,8.73,2.46
164900,10.77,-5.79,20.43,0.23,8.73,2.19
164935,11.91,-3.56,24.53,0.38,8.73,1.99
164970,12.28,-3.75,29.11,0.54,8.73,1.90
165005,11.77,-5.77,31.26,0.58,8.73,1.91
165040,9.73,-4.60,32.96,0.57,8.73,1.84
165075,5.98,-6.21,34.03,0.62,8.73,1.84
165110,3.30,-6.75,35.49,0.67,8.73,1.79
165145,0.15,-3.71,35.87,0.70,8.73,1.71
165180,-3.04,-3.56,33.40,0.84,8.73,1.58
165215,-5.56,-3.05,31.91,1.00,8.73,1.51
165250,-6.27,-4.53,27.81,1.05,8.73,1.57
165285,-6.52,-3.26,24.57,0.98,8.73,1.60
165320,-6.24,0.22,22.58,1.02,8.73,1.58
165355,-3.09,-2.80,18.36,1.09,8.73,1.66
165390,1.28,-0.60,16.88,1.09,8.73,1.58
165425,3.07,-3.12,15.95,1.18,8.73,1.63
165460,6.57,-0.31,17.63,1.28,8.73,1.48
165495,10.14,0.95,19.17,1.49,8.73,1.48
165530,10.44,-3.91,20.20,1.64,8.73,1.65
165565,13.18,-4.24,23.17,1.61,8.73,1.79
165600,11.91,-4.76,26.74,1.57,8.73,2.00
165635,11.60,-7.55,28.82,1.40,8.73,2.17
165670,10.53,-5.79,32.50,1.25,8.73,2.16
165705,6.83,-8.41,34.54,1.12,8.73,2.15
165740,3.79,-7.79,36.18,1.01,8.73,2.00
165775,-0.13,-7.51,36.32,1.07,8.73,1.89
165810,-2.58,-5.54,35.19,1.15,8.73,1.80
165845,-5.43,-5.37,32.49,1.26,8.73,1.89
165880,-6.23,-6.54,27.73,1.24,8.73,2.00
165915,-6.63,-6.94,25.03,1.19,8.73,2.04
165950,-6.32,-6.81,21.32,1.05,8.73,2.12
165985,-2.90,-3.01,19.11,0.96,8.73,2.14
166020,0.49,-6.00,16.11,0.95,8.73,2.19
166055,3.54,-5.27,16.26,0.73,8.73,2.24
166090,6.88,-6.09,15.97,0.68,8.73,2.15
166125,8.51,-7.46,16.47,0.51,8.73,2.12
166160,9.57,-4.49,19.83,0.44,8.73,1.94
166195,12.36,-5.10,22.40,0.47,8.73,1.85
166230,13.32,-5.46,25.48,0.38,8.73,1.70
166265,11.90,-5.88,29.22,0.51,8.73,1.55
166300,11.18,-6.16,32.10,0.52,8.73,1.48
166335,7.98,-3.50,35.03,0.64,8.73,1.56
166371,3.68,-6.29,35.16,0.74,8.73,1.67
166405,0.97,-5.17,36.38,0.70,8.73,1.75
166440,-3.16,-5.30,35.65,0.70,8.73,1.77
166475,-4.34,-5.01,32.31,0.71,8.73,1.71
166510,-6.06,-2.17,29.68,0.85,8.73,1.61
166545,-6.17,-4.57,25.33,1.04,8.73,1.67
166580,-3.73,-2.39,21.40,1.08,8.73,1.77
166615,-2.15,-2.26,17.66,1.16,8.73,1.79
166650,-1.31,-3.95,15.35,1.08,8.73,1.79
166685,1.80,-0.28,15.65,1.08,8.73,1.56
166720,5.06,2.06,16.64,1.29,8.73,1.30
166755,6.50,0.82,17.01,1.51,8.73,1.28
166790,9.87,-0.30,18.50,1.64,8.73,1.45
166830,12.71,-3.82,21.67,1.55,8.73,1.73
166865,11.90,-7.08,24.28,1.37,8.73,1.87
166900,11.21,-6.39,27.67,1.28,8.73,2.06
166935,11.38,-6.27,30.65,1.22,8.73,2.09
166970,7.97,-8.94,33.15,1.18,8.73,2.16
167005,4.61,-8.29,34.92,1.01,8.73,2.12
167040,1.81,-6.54,35.01,0.91,8.73,2.04
167075,-0.96,-6.42,33.33,0.88,8.73,1.93
167110,-3.82,-5.98,30.90,0.94,8.73,1.80
167145,-5.23,-5.21,28.08,1.03,8.73,1.79
167180,-5.94,-6.13,24.26,1.01,8.73,1.85
167215,-6.96,-3.38,21.81,0.83,8.73,1.78
167250,-6.72,-0.89,19.02,0.84,8.73,1.72
167285,-5.70,-4.17,15.97,0.94,8.73,1.79
167321,-3.22,-5.85,14.98,0.86,8.73,1.86
167355,3.15,-4.50,14.69,0.79,8.73,1.97
167390,7.44,-5.98,13.85,0.70,8.73,2.04
167425,8.83,-6.90,15.32,0.58,8.73,1.98
167460,10.15,-4.31,19.34,0.63,8.73,1.84
167495,11.71,-0.17,22.17,0.91,8.73,1.79
167530,11.95,-3.63,24.83,1.14,8.73,1.90
167565,10.75,-7.24,27.50,1.21,8.73,2.11
167600,10.43,-5.59,31.36,1.12,8.73,2.19
167635,7.56,-7.57,34.10,1.00,8.73,2.19
167670,3.61,-8.20,34.49,0.90,8.73,2.00
167705,0.70,-5.67,33.84,0.94,8.73,1.76
167740,-2.54,-5.27,32.04,1.10,8.73,1.60
167775,-4.49,-5.83,28.41,1.17,8.73,1.61
167810,-6.12,-6.71,25.91,1.09,8.73,1.70
167845,-6.55,-4.27,23.84,0.98,8.73,1.73
167880,-6.14,-4.31,21.06,0.86,8.73,1.64
167915,-5.54,-4.00,18.01,0.80,8.73,1.54
167950,-4.07,-0.93,16.61,0.83,8.73,1.50
167985,-0.90,-0.58,13.84,0.95,8.73,1.52
168020,2.01,-3.91,12.47,1.03,8.73,1.55
168055,5.42,-3.79,14.25,0.99,8.73,1.60
168090,8.84,-2.54,16.87,1.04,8.73,1.63
168125,10.41,-1.86,18.88,1.16,8.73,1.64
168160,11.53,-3.78,21.81,1.23,8.73,1.72
168195,11.43,-6.79,24.74,1.20,8.73,1.87
168230,11.85,-7.24,27.81,1.02,8.73,1.91
168265,10.45,-6.12,31.58,0.85,8.73,1.78
168300,7.72,-6.34,32.92,0.75,8.73,1.65
168335,4.03,-7.35,32.30,0.75,8.73,1.55
168371,0.17,-6.89,31.91,0.79,8.73,1.53
168405,-2.64,-4.88,31.31,0.72,8.73,1.54
168440,-5.24,-6.08,29.40,0.55,8.73,1.56
168475,-6.59,-4.18,28.49,0.46,8.73,1.50
168510,-7.56,-2.08,25.85,0.42,8.73,1.35
168545,-6.73,-0.55,22.78,0.50,8.73,1.17
168580,-4.53,0.52,19.52,0.64,8.73,1.00
168615,-3.59,2.32,17.59,0.84,8.73,0.81
168650,0.51,5.31,15.56,1.12,8.73,0.55
168685,3.56,7.75,17.25,1.59,8.73,0.42
168720,4.72,2.69,16.72,1.94,8.73,0.71
168755,8.42,-2.41,18.48,2.25,8.73,1.14
168790,11.90,-2.92,23.55,2.25,8.73,1.61
168825,13.45,-9.16,26.18,2.06,8.73,2.05
168865,12.73,-9.85,31.00,1.82,8.73,2.37
168900,9.61,-9.49,34.03,1.60,8.73,2.58
168935,6.68,-10.22,36.16,1.27,8.73,2.62
168970,3.26,-10.99,38.01,0.89,8.73,2.47
169005,0.34,-8.95,37.53,0.85,8.73,2.18
169040,-3.27,-9.33,34.28,0.86,8.73,2.03
169075,-4.18,-9.45,33.18,0.62,8.73,2.03
169110,-4.89,-7.49,27.65,0.27,8.73,1.87
169145,-4.58,-2.70,24.04,-0.01,8.73,1.41
169180,-7.63,2.25,21.56,0.06,8.73,1.03
169215,-8.09,0.74,20.92,0.45,8.73,0.92
169250,-1.05,1.29,20.13,0.86,8.73,1.10
169285,2.95,-4.07,18.73,1.09,8.73,1.30
169320,6.96,1.80,18.55,1.24,8.73,1.41
169355,11.60,-1.48,22.80,1.66,8.73,1.41
169390,13.34,0.32,26.63,2.28,8.73,1.56
169425,13.86,-4.87,27.23,2.77,8.73,2.15
169460,14.47,-10.94,29.56,2.65,8.73,2.83
169495,9.88,-15.78,33.17,1.98,8.73,3.18
169530,7.79,-12.73,38.00,1.46,8.73,3.04
169565,4.78,-13.41,40.78,0.96,8.73,2.82
169600,1.15,-11.51,37.54,0.79,8.73,2.75
169635,-3.85,-15.85,34.47,0.26,8.73,2.78
169670,-4.17,-6.36,33.09,-0.21,8.73,2.52
169705,-8.60,-2.71,32.10,-0.17,8.73,2.10
169740,-9.64,-0.07,29.10,0.03,8.73,1.75
169775,-6.78,-1.64,24.79,0.43,8.73,1.74
169810,2.16,-4.28,22.04,0.64,8.73,1.80
169846,6.92,-3.36,22.46,0.78,8.73,1.66
169880,8.83,-2.42,20.49,0.98,8.73,1.42
169915,10.87,1.49,21.66,1.40,8.73,1.30
169950,13.30,0.37,23.87,1.93,8.73,1.37
169985,13.52,-3.09,27.63,2.27,8.73,1.67
170020,14.63,-9.50,27.93,2.29,8.73,2.17
170055,12.43,-12.90,32.07,1.99,8.73,2.52
170090,8.99,-13.13,33.78,1.64,8.73,2.65
170125,4.63,-11.60,35.92,1.30,8.73,2.66
170160,2.01,-12.91,36.84,0.86,8.73,2.75
170196,-1.28,-11.78,34.82,0.58,8.73,2.72
170230,-4.46,-8.15,33.15,0.19,8.73,2.51
170265,-7.19,-7.77,31.22,-0.02,8.73,2.20
170300,-8.52,-2.99,29.35,0.01,8.73,1.89
170335,-7.56,-3.07,24.35,0.12,8.73,1.62
170371,-5.35,-0.81,20.89,0.25,8.73,1.28
170405,-2.08,1.79,19.57,0.42,8.73,0.94
170440,4.95,5.20,20.58,0.79,8.73,0.67
170475,8.56,3.99,18.49,1.27,8.73,0.58
170510,11.24,2.58,19.14,1.77,8.73,0.76
170545,10.97,-2.06,20.02,2.04,8.73,1.15
170580,12.06,-8.02,23.24,1.91,8.73,1.59
170615,13.88,-9.09,29.09,1.72,8.73,1.84
170651,12.05,-11.35,32.46,1.44,8.73,2.04
170685,8.47,-9.75,34.41,1.38,8.73,2.19
170720,3.59,-10.86,33.99,1.21,8.73,2.48
170755,2.08,-11.94,33.20,0.83,8.73,2.76
170790,-1.48,-13.69,35.42,0.47,8.73,2.88
170825,-4.46,-8.25,36.24,0.18,8.73,2.66
170860,-7.95,-5.77,33.35,0.21,8.73,2.32
170900,-7.26,-3.98,28.62,0.33,8.73,2.04
170935,-3.11,-5.24,21.68,0.37,8.73,1.85
170970,1.67,-3.48,15.98,0.47,8.73,1.61
171005,1.00,-3.01,14.73,0.47,8.73,1.33
171040,2.84,1.61,15.13,0.65,8.73,1.11
171075,4.32,1.99,15.26,0.94,8.73,0.99
171110,6.62,-2.10,16.03,1.21,8.73,1.06
171145,10.69,-1.41,17.91,1.44,8.73,1.20
171180,12.66,-5.57,20.38,1.58,8.73,1.44
171215,13.53,-5.10,23.98,1.59,8.73,1.65
171250,12.78,-6.90,26.96,1.66,8.73,1.91
171285,9.44,-9.12,28.75,1.55,8.73,2.21
171321,8.71,-9.47,30.89,1.38,8.73,2.46
171356,5.02,-11.85,31.62,1.11,8.73,2.65
171391,1.24,-12.55,33.64,0.70,8.73,2.76
171425,-1.77,-8.19,34.06,0.40,8.73,2.66
171460,-5.03,-8.34,32.13,0.23,8.73,2.40
171496,-6.85,-6.32,28.36,0.10,8.73,2.12
171530,-6.83,-4.17,24.40,-0.01,8.73,1.84
171565,-4.87,-2.50,20.03,-0.24,8.73,1.45
171600,-4.29,2.79,18.12,-0.13,8.73,1.02
171635,-3.75,3.79,16.00,0.18,8.73,0.82
171670,0.81,2.81,14.44,0.51,8.73,0.86
171705,2.11,-3.21,13.78,0.73,8.73,1.10
171740,4.54,-6.34,14.80,0.70,8.73,1.42
171775,8.37,-5.03,17.41,0.75,8.73,1.49
171810,10.99,-3.08,20.93,1.00,8.73,1.45
171845,12.55,-2.48,23.39,1.28,8.73,1.53
171880,11.71,-6.19,26.55,1.50,8.73,1.78
171915,10.08,-6.16,30.00,1.58,8.73,1.99
171950,8.92,-10.35,31.98,1.49,8.73,2.18
171985,6.27,-9.17,33.80,1.29,8.73,2.25
172020,2.70,-10.41,33.57,1.16,8.73,2.31
172055,-0.66,-10.00,34.25,1.09,8.73,2.30
172090,-4.21,-8.14,33.72,1.05,8.73,2.27
172125,-5.12,-8.56,31.53,0.99,8.73,2.29
172160,-5.68,-7.88,27.01,0.97,8.73,2.29
172195,-5.26,-7.45,22.09,0.93,8.73,2.33
172230,-3.82,-7.27,18.24,0.91,8.73,2.47
172265,-1.19,-7.60,15.02,0.88,8.73,2.66
172300,1.84,-8.60,12.81,0.67,8.73,2.64
172336,0.57,-8.32,11.70,0.50,8.73,2.35
172371,5.42,-4.77,14.53,0.44,8.73,2.08
172405,8.86,-4.01,16.01,0.55,8.73,1.82
172440,9.56,0.67,17.72,0.85,8.73,1.67
172475,10.75,-0.32,21.80,1.00,8.73,1.67
172510,12.54,-4.46,24.16,1.24,8.73,1.87
172545,12.89,-4.81,27.50,1.29,8.73,2.05
172580,9.93,-8.70,30.27,1.27,8.73,2.25
172615,6.96,-8.43,32.71,1.09,8.73,2.31
172650,4.83,-7.26,34.19,0.97,8.73,2.15
172685,1.64,-6.38,33.85,0.90,8.73,1.96
172720,-1.14,-6.56,32.38,0.96,8.73,1.80
172755,-3.69,-5.94,29.46,1.13,8.73,1.71
172790,-6.29,-6.09,27.50,1.18,8.73,1.71
172825,-6.77,-6.67,23.18,1.11,8.73,1.79
172860,-5.95,-5.76,19.77,0.90,8.73,1.76
172895,-6.22,-0.49,17.84,0.74,8.73,1.58
172935,-6.05,-3.23,14.88,0.78,8.73,1.47
172970,-2.87,0.44,14.48,0.83,8.73,1.43
173005,1.67,0.29,14.94,0.92,8.73,1.55
173040,5.07,-1.81,15.07,0.91,8.73,1.66
173075,8.36,-3.94,16.91,0.87,8.73,1.74
173110,9.48,-6.55,17.54,0.84,8.73,1.73
173145,12.26,-4.42,21.24,0.83,8.73,1.71
173180,11.86,-4.17,25.42,0.97,8.73,1.73
173215,11.97,-7.13,28.21,1.09,8.73,1.88
173250,11.06,-4.65,31.62,1.04,8.73,1.95
173285,7.24,-5.69,32.23,1.01,8.73,2.01
173320,4.03,-7.13,32.58,0.94,8.73,2.03
173355,0.75,-7.10,33.32,0.84,8.73,2.04
173391,-2.32,-6.97,32.05,0.75,8.73,2.01
173425,-4.46,-5.41,29.72,0.67,8.73,1.93
173460,-5.99,-5.65,27.50,0.51,8.73,1.91
173495,-6.47,-3.61,24.90,0.28,8.73,1.80
173531,-6.82,-0.54,23.06,0.21,8.73,1.62
173565,-5.95,1.52,20.03,0.42,8.73,1.61
173600,-3.79,-4.04,17.23,0.64,8.73,1.84
173635,-4.54,-7.07,14.67,0.60,8.73,2.05
173670,-1.10,-6.44,14.83,0.46,8.73,2.21
173705,3.85,-6.21,16.54,0.40,8.73,2.11
173740,9.18,-3.02,19.05,0.47,8.73,1.88
173775,11.26,-1.60,23.04,0.79,8.73,1.73
173810,13.04,-4.11,25.93,0.77,8.73,1.72
173846,13.96,-7.52,28.78,0.86,8.73,1.65
173880,11.38,-6.12,32.26,0.69,8.73,1.51
173915,8.79,-5.04,34.70,0.75,8.73,1.20
173950,5.92,-5.49,35.53,0.82,8.73,1.01
173985,3.27,-3.70,36.99,1.11,8.73,0.92
174020,-0.62,-7.11,34.60,1.27,8.73,1.15
174055,-4.24,-4.44,34.97,1.11,8.73,1.45
174089,-6.99,-5.72,33.53,1.04,8.73,1.62
174124,-7.05,-5.08,30.72,0.77,8.73,1.60
174159,-6.87,-3.34,27.85,0.58,8.73,1.48
174193,-5.72,3.42,25.45,0.60,8.73,1.35
174228,-5.20,1.26,21.94,0.91,8.73,1.46
174263,0.38,-2.10,20.18,1.05,8.73,1.56
174298,7.42,-1.23,21.30,1.07,8.73,1.70
174333,9.99,-5.78,20.67,1.06,8.73,1.74
174368,12.25,-3.27,22.59,1.19,8.73,1.76
174403,12.32,-1.78,25.69,1.28,8.73,1.77
174438,11.97,-4.75,28.83,1.51,8.73,1.92
174473,12.52,-6.37,32.81,1.43,8.73,2.03
174508,10.60,-8.73,35.32,1.31,8.73,1.96
174543,8.01,-5.80,37.54,1.21,8.73,1.71
174578,4.24,-5.98,37.96,1.29,8.73,1.46
174613,0.75,-4.77,36.24,1.62,8.73,1.28
174648,-2.79,-7.13,35.15,1.70,8.73,1.48
174683,-4.33,-5.11,33.72,1.76,8.73,1.72
174718,-5.78,-6.46,29.51,1.66,8.73,1.95
174753,-6.59,-7.77,26.68,1.48,8.73,2.05
174788,-6.88,-4.59,24.06,1.27,8.73,2.11
174823,-2.55,-3.79,20.53,1.22,8.73,2.19
174858,0.66,-4.70,18.94,1.12,8.73,2.10
174893,3.26,-2.98,18.59,1.04,8.73,2.09
174928,6.15,-3.21,19.82,1.07,8.73,2.02
174968,11.18,-3.69,22.06,1.11,8.73,2.01
175003,12.67,-4.17,26.08,1.09,8.73,2.01
175038,14.18,-5.46,27.84,1.05,8.73,2.05
175073,12.41,-6.35,30.52,0.91,8.73,2.02
175108,10.20,-7.92,32.30,0.84,8.73,1.91
175143,8.38,-6.16,34.29,0.78,8.73,1.79
175178,5.09,-7.44,35.71,0.85,8.73,1.76
175213,2.53,-4.38,36.77,0.92,8.73,1.74
175248,-1.19,-5.05,35.09,0.98,8.73,1.70
175283,-4.02,-6.23,33.25,0.96,8.73,1.72
175318,-6.15,-5.68,30.81,0.94,8.73,1.74
175353,-7.42,-4.45,27.87,0.88,8.73,1.75
175388,-7.47,-1.19,25.52,0.85,8.73,1.70
175423,-6.23,-3.05,21.88,0.89,8.73,1.70
175458,-2.63,-0.77,20.02,0.95,8.73,1.68
175493,1.36,-1.01,17.64,0.95,8.73,1.68
175528,5.56,-0.83,17.43,1.02,8.73,1.64
175563,8.38,-5.52,17.64,1.02,8.73,1.68
175598,12.08,-2.35,20.32,0.96,8.73,1.68
175633,12.75,-4.54,22.58,0.95,8.73,1.70
175668,12.85,-6.56,24.39,0.85,8.73,1.68
175703,12.39,-3.59,27.98,0.81,8.73,1.59
175738,10.57,-6.42,30.59,0.87,8.73,1.60
175773,8.17,-6.45,32.67,0.90,8.73,1.60
175808,5.02,-4.18,35.76,0.97,8.73,1.65
175844,2.34,-7.39,34.44,1.02,8.73,1.77
175878,0.08,-4.44,34.46,0.96,8.73,1.76
175913,-3.90,-4.59,32.74,1.05,8.73,1.76
175948,-5.73,-4.71,30.49,1.17,8.73,1.81
175983,-6.17,-3.98,27.36,1.17,8.73,1.86
176018,-7.43,-4.92,23.73,1.21,8.73,1.94
176053,-6.97,-6.11,19.76,1.19,8.73,2.06
176088,-4.27,-3.76,17.59,1.13,8.73,2.17
176123,0.72,-5.03,15.31,1.04,8.73,2.11
176158,3.83,-3.96,14.78,0.93,8.73,2.00
176193,7.36,-1.37,14.47,0.92,8.73,1.87
176228,8.90,-3.21,16.10,0.95,8.73,1.86
176263,10.61,-5.17,18.67,0.98,8.73,1.83
176298,11.75,-5.05,20.94,0.89,8.73,1.83
176334,12.29,-4.68,24.75,0.83,8.73,1.78
176369,11.40,-7.16,27.85,0.81,8.73,1.77
176403,10.31,-5.26,31.24,0.72,8.73,1.62
176438,7.09,-5.21,33.67,0.80,8.73,1.53
176473,4.41,-6.80,34.64,0.84,8.73,1.50
176508,1.19,-4.78,34.99,0.95,8.73,1.50
176543,-2.13,-3.77,33.34,1.04,8.73,1.49
176578,-5.36,-5.63,30.96,1.08,8.73,1.55
176613,-6.06,-3.54,28.86,1.07,8.73,1.60
176648,-5.15,-4.62,23.87,1.01,8.73,1.62
176683,-4.51,-3.62,20.16,0.97,8.73,1.63
176718,-3.33,-1.50,17.41,0.95,8.73,1.62
176753,-2.34,-0.17,15.33,1.01,8.73,1.57
176788,0.54,-1.88,13.38,1.03,8.73,1.48
176823,3.06,-1.13,12.91,1.11,8.73,1.41
176858,6.37,-0.40,14.84,1.27,8.73,1.36
176893,10.68,0.70,16.65,1.46,8.73,1.39
176928,11.06,-2.09,19.11,1.64,8.73,1.55
176963,11.19,-3.74,20.73,1.61,8.73,1.72
177003,11.79,-5.09,23.72,1.40,8.73,1.89
177038,10.69,-7.56,26.86,1.24,8.73,1.90
177073,8.77,-8.71,30.08,1.08,8.73,1.87
177108,6.82,-6.35,32.61,0.95,8.73,1.79
177143,4.06,-5.07,33.54,0.99,8.73,1.62
177178,0.13,-5.98,32.96,1.08,8.73,1.60
177213,-2.97,-6.15,31.15,1.05,8.73,1.66
177248,-4.96,-5.65,27.94,0.94,8.73,1.72
177283,-5.84,-4.47,25.06,0.89,8.73,1.71
177319,-6.62,-3.59,22.27,0.83,8.73,1.68
177353,-7.54,-1.69,20.49,0.86,8.73,1.66
177389,-5.81,-2.61,17.23,0.91,8.73,1.71
177423,-4.00,-4.31,14.39,0.96,8.73,1.79
177458,-0.47,-4.59,11.91,0.86,8.73,1.81
177493,2.27,-1.13,11.71,0.79,8.73,1.80
177528,5.09,-0.61,11.61,0.83,8.73,1.67
177563,8.11,-1.04,13.30,0.87,8.73,1.62
177598,10.16,-2.91,15.33,0.98,8.73,1.60
177633,11.43,-2.27,18.35,1.02,8.73,1.61
177668,11.89,-3.99,21.44,1.08,8.73,1.68
177703,11.43,-6.22,24.58,1.06,8.73,1.73
177738,9.75,-6.81,27.32,0.93,8.73,1.71
177773,7.94,-7.05,29.51,0.84,8.73,1.59
177808,5.53,-5.07,31.31,0.83,8.73,1.49
177843,2.74,-4.32,31.05,0.96,8.73,1.38
177878,-0.20,-3.69,30.53,1.09,8.73,1.40
177913,-3.01,-4.26,28.74,1.09,8.69,1.48
177948,-4.88,-3.98,26.16,1.07,8.63,1.56
177983,-6.43,-4.34,23.34,1.09,8.57,1.60
178018,-5.97,-2.79,19.82,0.99,8.55,1.63
178053,-5.90,-2.34,16.83,0.96,8.51,1.64
178088,-5.80,-4.17,13.60,1.00,8.51,1.71
178122,-6.05,-3.18,12.74,1.01,8.51,1.76
178156,-1.35,-0.04,11.68,0.96,8.53,1.66
178191,0.57,0.05,10.42,0.95,8.52,1.59
178226,5.01,0.48,10.30,1.01,8.52,1.50
178261,7.59,1.71,12.24,1.07,8.53,1.45
178296,10.20,0.77,14.40,1.22,8.52,1.46
178331,11.08,-1.59,16.52,1.28,8.56,1.58
178366,12.28,-4.52,18.87,1.23,8.57,1.69
178401,12.22,-5.83,21.87,1.11,8.54,1.75
178436,10.97,-5.79,24.61,0.90,8.51,1.68
178471,9.33,-4.91,26.32,0.82,8.44,1.61
178506,6.63,-5.04,28.55,0.81,8.35,1.62
178541,4.38,-4.22,29.47,0.76,8.33,1.58
178576,1.33,-4.13,28.88,0.72,8.30,1.55
178611,-1.42,-6.05,26.99,0.71,8.27,1.54
178646,-4.43,-4.36,26.36,0.73,8.26,1.51
178681,-5.99,-3.41,24.87,0.75,8.32,1.52
178716,-6.98,-4.58,21.61,0.71,8.36,1.50
178751,-6.82,-2.37,18.84,0.65,8.39,1.45
178786,-6.81,-1.38,16.40,0.62,8.40,1.36
178821,-5.86,-1.19,13.99,0.62,8.45,1.23
178856,-5.86,-2.04,11.72,0.76,8.43,1.22
178891,-3.42,-2.47,9.92,0.84,8.46,1.18
178926,-0.28,-0.73,10.22,0.91,8.49,1.12
178961,4.22,2.18,10.66,1.01,8.49,1.12
178996,6.91,1.01,12.03,1.14,8.51,1.12
179036,9.79,-2.08,13.14,1.29,8.44,1.26
179071,12.07,-3.59,15.46,1.28,8.41,1.38
179106,12.40,-3.95,18.94,1.23,8.37,1.44
179141,11.70,-4.76,21.84,1.11,8.32,1.45
179176,10.81,-5.86,23.87,1.01,8.25,1.40
179211,9.61,-4.55,25.51,0.93,8.19,1.30
179246,6.49,-4.81,26.94,0.93,8.11,1.24
179281,4.11,-4.85,27.44,0.95,8.09,1.25
179316,1.00,-6.15,27.79,1.02,8.10,1.36
179351,-1.31,-6.36,27.61,1.05,8.12,1.45
179386,-4.22,-6.23,25.41,0.97,8.10,1.55
179421,-5.62,-3.58,23.45,0.90,8.05,1.58
179456,-7.46,-3.83,22.01,0.96,8.03,1.59
179491,-7.88,-3.28,19.16,0.88,8.05,1.61
179526,-8.23,-3.78,16.39,0.91,8.08,1.68
179561,-7.64,-3.14,13.87,0.94,8.13,1.79
179596,-4.52,-4.51,11.30,0.90,8.13,1.89
179631,-2.15,-5.92,8.85,0.82,8.16,1.89
179666,1.42,-5.65,8.38,0.75,8.20,1.85
179701,5.54,-3.11,9.15,0.70,8.20,1.80
179736,7.35,-0.20,10.53,0.66,8.16,1.68
179771,9.75,-1.67,10.95,0.71,8.16,1.60
179806,10.40,-2.89,12.88,0.83,8.12,1.54
179842,11.12,-3.16,15.08,0.84,8.05,1.52
179876,11.41,-3.06,17.48,0.83,7.98,1.49
179911,11.38,-4.67,19.91,0.78,7.98,1.46
179946,10.57,-5.23,22.75,0.69,8.02,1.35
179981,8.37,-3.93,25.11,0.65,8.07,1.19
180016,6.62,-3.65,26.64,0.69,8.07,1.10
180051,3.30,-4.99,27.78,0.80,8.12,1.05
180086,0.51,-3.63,28.04,0.94,8.11,1.05
180121,-1.31,-3.89,27.24,1.02,8.12,1.08
180156,-4.07,-3.93,25.91,1.05,8.15,1.16
180191,-6.38,-3.04,24.51,1.04,8.20,1.29
180226,-6.54,-3.32,21.14,1.00,8.24,1.33
180261,-6.07,-3.01,17.93,0.92,8.21,1.35
180296,-5.69,-2.23,14.62,0.82,8.17,1.28
180331,-5.66,-0.90,12.07,0.78,8.15,1.21
180366,-3.69,-0.76,10.04,0.81,8.12,1.15
180401,-0.48,3.15,9.31,0.87,8.11,0.92
180436,2.27,3.55,8.66,0.97,8.07,0.89
180471,4.96,-0.05,8.15,1.11,8.03,0.94
180506,6.96,0.69,9.67,1.24,7.97,1.04
180541,9.25,1.20,10.36,1.29,7.92,1.15
180576,10.41,-1.86,12.41,1.33,7.86,1.27
180611,11.30,-2.90,13.88,1.32,7.83,1.42
180646,11.12,-3.70,16.98,1.32,7.82,1.51
180681,11.27,-5.33,19.35,1.30,7.82,1.63
180716,10.48,-4.65,22.14,1.19,7.85,1.72
180751,7.45,-4.95,24.39,1.09,7.89,1.78
180786,6.50,-4.58,26.50,1.05,7.88,1.79
180821,3.58,-7.42,26.57,1.02,7.96,1.75
180856,0.65,-4.42,27.57,0.98,7.98,1.72
180891,-1.76,-3.99,26.99,0.98,7.99,1.61
180926,-4.46,-3.93,25.43,1.11,7.99,1.54
180961,-5.63,-3.57,22.74,1.29,7.94,1.56
180996,-6.62,-4.98,19.51,1.43,7.87,1.64
181031,-7.40,-4.91,16.44,1.42,7.80,1.78
181071,-7.21,-5.41,13.72,1.35,7.79,1.95
181106,-6.13,-5.32,11.09,1.24,7.79,2.08
181141,-4.78,-4.58,9.10,1.08,7.76,2.18
181176,-2.26,-3.83,7.11,0.89,7.76,2.22
181211,0.51,-4.97,7.22,0.69,7.79,2.13
181246,3.44,-3.79,7.20,0.61,7.86,1.93
181282,6.22,-1.52,9.08,0.56,7.90,1.75
181317,9.39,-1.86,10.43,0.50,7.95,1.71
181351,10.50,-4.97,12.25,0.43,7.98,1.64
181387,11.79,-4.70,14.40,0.29,7.97,1.57
181421,11.36,-4.95,17.14,0.17,7.97,1.39
181456,10.74,-3.80,19.87,0.15,7.99,1.22
181491,10.29,-2.30,23.02,0.28,8.07,1.12
181526,8.62,-2.11,25.62,0.42,8.17,1.08
181561,6.95,-3.24,27.53,0.55,8.18,1.19
181596,4.02,-3.56,28.91,0.64,8.22,1.13
181631,0.38,-3.37,28.20,0.79,8.19,1.06
181666,-1.48,-3.49,26.42,0.87,8.13,1.07
181701,-3.89,-3.11,25.69,0.94,8.09,1.11
181736,-6.20,-1.97,23.53,1.00,8.08,1.19
181771,-7.24,-4.96,20.37,0.88,8.09,1.27
181806,-6.50,-1.49,16.78,0.64,8.07,1.24
181842,-6.16,0.51,14.39,0.56,8.05,1.09
181876,-5.87,2.14,12.56,0.62,8.05,0.97
181911,-4.37,2.09,10.58,0.75,8.00,0.99
181946,-0.88,1.60,8.86,0.87,7.95,0.96
181981,0.72,0.12,7.85,0.96,7.92,0.99
182016,3.83,1.41,7.53,1.09,7.94,1.06
182052,5.54,0.56,9.02,1.17,7.91,1.12
182086,8.05,-0.60,10.80,1.28,7.95,1.22
182121,9.57,0.57,11.28,1.40,7.92,1.30
182156,10.32,-1.51,13.86,1.49,7.96,1.46
182191,10.95,-4.70,16.89,1.37,8.06,1.59
182226,11.30,-5.67,20.33,1.22,8.10,1.73
182261,10.69,-5.93,23.64,1.02,8.16,1.71
182296,7.91,-5.14,26.01,0.89,8.19,1.56
182331,6.46,-4.68,27.57,0.84,8.13,1.54
182366,3.23,-5.62,27.61,0.86,8.13,1.50
182401,0.62,-5.36,27.10,0.91,8.09,1.49
182436,-1.96,-5.41,26.92,0.91,8.08,1.51
182471,-4.82,-4.58,26.49,0.90,8.14,1.52
182506,-6.44,-3.46,24.45,0.93,8.17,1.53
182541,-6.23,-4.14,20.50,0.95,8.16,1.56
182576,-6.13,-3.80,16.70,0.93,8.07,1.57
182611,-7.91,-2.82,14.80,0.98,8.02,1.63
182646,-6.71,-3.93,12.47,0.96,8.08,1.69
182681,-5.31,-3.30,11.26,0.91,8.13,1.72
182716,-2.55,-1.15,10.60,0.86,8.23,1.70
182751,-0.73,-1.63,9.70,0.81,8.29,1.72
182786,3.00,-2.95,9.41,0.79,8.37,1.68
182821,5.59,-4.13,10.83,0.84,8.45,1.60
182856,9.98,-4.48,13.10,0.88,8.46,1.58
182891,11.55,-4.22,15.27,0.94,8.42,1.57
182926,12.66,-3.79,17.97,0.96,8.39,1.60
182961,11.99,-4.86,20.36,0.97,8.35,1.63
182996,10.93,-4.63,22.93,0.99,8.35,1.70
183031,9.45,-5.51,25.54,1.00,8.38,1.75
183066,7.39,-6.21,27.27,0.98,8.35,1.81
183106,4.18,-6.15,29.04,0.89,8.33,1.84
183141,1.01,-6.23,29.04,0.84,8.31,1.86
183176,-1.37,-5.86,27.77,0.76,8.28,1.85
183211,-4.05,-5.28,25.86,0.78,8.28,1.79
183246,-5.30,-3.06,23.91,0.81,8.26,1.75
183281,-6.63,-3.84,20.95,0.89,8.23,1.73
183317,-7.50,-4.19,18.56,1.01,8.20,1.80
183352,-6.94,-4.03,15.95,1.03,8.19,1.89
183387,-6.40,-4.04,13.46,1.00,8.21,1.97
183421,-6.11,-3.11,10.43,0.92,8.16,2.03
183456,-3.45,-3.80,9.58,0.83,8.21,1.97
183491,0.31,-2.64,9.74,0.68,8.25,1.98
183526,4.08,-2.22,9.28,0.55,8.30,1.99
183561,6.69,-6.21,10.22,0.40,8.37,1.96
183596,10.04,-7.71,12.87,0.23,8.40,1.93
183630,11.88,-5.80,15.14,0.05,8.35,1.83
183665,12.61,-3.75,17.40,0.04,8.34,1.64
183700,11.47,-2.96,20.17,0.17,8.35,1.51
183735,11.41,-3.08,22.85,0.41,8.36,1.53
183770,10.86,-4.45,26.17,0.55,8.39,1.67
183805,7.74,-5.29,27.49,0.61,8.34,1.83
183840,4.43,-6.32,27.78,0.58,8.25,1.94
183875,1.99,-5.45,28.72,0.46,8.21,1.99
183910,-0.61,-2.21,28.13,0.31,8.20,1.80
183945,-3.03,-2.93,26.71,0.42,8.20,1.55
183980,-5.48,-2.80,25.09,0.53,8.20,1.45
184015,-6.99,-2.38,23.17,0.63,8.23,1.40
184050,-7.43,-3.13,19.83,0.61,8.26,1.38
184085,-7.74,-0.97,17.19,0.60,8.29,1.28
184120,-7.27,0.03,14.97,0.60,8.34,1.16
184155,-3.53,-0.58,11.77,0.67,8.34,1.01
184190,-1.08,0.97,9.77,0.79,8.37,0.84
184225,1.64,0.85,9.59,0.96,8.40,0.78
184260,4.84,3.04,11.26,1.16,8.41,0.75
184296,6.68,2.22,11.56,1.37,8.37,0.81
184331,9.14,0.33,12.16,1.49,8.34,1.00
184366,10.68,-2.09,13.82,1.54,8.30,1.18
184400,12.20,-3.37,15.33,1.54,8.26,1.36
184435,12.22,-4.72,18.31,1.46,8.25,1.50
184470,11.05,-7.05,21.59,1.41,8.22,1.58
184505,9.85,-6.53,23.92,1.23,8.18,1.55
184540,8.43,-5.99,25.66,1.08,8.16,1.40
184575,5.10,-4.93,26.91,1.02,8.12,1.25
184610,2.45,-4.53,27.43,1.08,8.12,1.15
184645,0.21,-4.93,28.10,1.23,8.09,1.21
184680,-2.71,-5.26,27.04,1.33,8.14,1.32
184715,-5.18,-6.02,25.02,1.34,8.13,1.49
184750,-6.14,-4.91,22.85,1.45,8.09,1.61
184785,-7.54,-5.06,20.82,1.53,8.05,1.74
184821,-7.94,-6.29,17.48,1.48,8.05,1.93
184855,-7.62,-5.47,14.40,1.39,8.05,2.12
184890,-6.18,-4.87,12.15,1.25,8.08,2.29
184925,-3.74,-4.36,10.14,1.03,8.12,2.31
184960,-0.99,-3.54,9.10,0.82,8.13,2.26
184995,1.00,-4.49,8.26,0.63,8.17,2.27
185030,4.57,-6.33,8.05,0.51,8.19,2.16
185065,6.92,-7.20,9.30,0.29,8.26,2.11
185100,9.01,-5.89,12.59,0.11,8.30,2.00
185140,10.86,-4.89,16.01,0.11,8.34,1.78
185175,12.34,-3.21,19.02,0.17,8.36,1.61
185210,11.89,-2.65,21.37,0.32,8.35,1.56
185245,10.35,-4.15,24.07,0.46,8.34,1.56
185280,8.40,-4.21,26.63,0.52,8.29,1.54
185315,7.03,-4.51,28.31,0.53,8.24,1.64
185350,3.43,-6.35,28.53,0.53,8.30,1.70
185385,0.83,-5.40,28.41,0.45,8.30,1.76
185420,-1.77,-3.00,27.81,0.32,8.27,1.69
185455,-4.49,-3.15,26.68,0.31,8.29,1.52
185490,-5.71,-1.26,24.13,0.33,8.30,1.40
185525,-5.93,-1.79,20.64,0.35,8.27,1.31
185560,-6.70,-0.88,18.07,0.33,8.26,1.19
185595,-6.47,1.82,15.90,0.41,8.26,1.09
185630,-6.03,0.88,13.77,0.55,8.32,1.05
185665,-5.54,-0.28,11.82,0.72,8.38,1.07
185700,-2.23,-1.79,9.70,0.86,8.36,1.11
185735,0.02,-2.53,7.99,0.95,8.33,1.20
185770,5.06,-1.59,7.95,1.03,8.27,1.28
185805,7.54,1.00,11.39,1.09,8.24,1.31
185841,10.82,-0.20,12.96,1.29,8.18,1.29
185875,11.96,-1.60,15.18,1.49,8.12,1.35
185910,12.45,-3.01,17.32,1.57,8.06,1.52
185945,11.82,-5.20,19.30,1.52,8.07,1.69
185980,10.81,-6.53,21.90,1.38,8.13,1.76
186015,9.00,-6.82,24.01,1.21,8.18,1.74
186050,8.44,-5.82,26.74,1.11,8.13,1.73
186085,4.12,-7.87,26.67,1.06,8.14,1.72
186120,1.92,-5.16,27.96,0.99,8.16,1.75
186155,-1.41,-5.62,28.40,0.97,8.15,1.70
186190,-4.08,-4.99,26.54,0.97,8.14,1.68
186225,-5.05,-3.35,24.29,1.02,8.14,1.67
186260,-6.24,-5.19,21.28,1.12,8.11,1.72
186295,-6.47,-4.92,17.99,1.18,8.04,1.80
186330,-7.80,-5.16,16.14,1.23,8.00,1.91
186366,-7.71,-5.54,13.30,1.19,7.99,2.05
186401,-4.41,-4.56,10.62,1.10,7.91,2.21
186435,-2.57,-4.50,8.53,0.90,7.90,2.25
186470,-0.22,-5.11,7.33,0.73,7.90,2.30
186505,1.40,-6.36,7.81,0.55,8.00,2.24
186540,5.37,-2.90,9.01,0.50,8.04,1.99
186575,8.41,-1.84,9.95,0.50,8.07,1.84
186610,9.86,-1.73,11.50,0.54,8.09,1.71
186645,10.21,-3.63,14.64,0.64,8.13,1.65
186680,12.09,-2.92,17.91,0.71,8.15,1.64
186715,11.38,-3.46,21.02,0.75,8.11,1.65
186750,10.45,-5.02,22.74,0.80,8.06,1.66
186785,9.79,-5.07,25.46,0.75,8.09,1.68
186820,6.52,-5.03,27.19,0.73,8.08,1.69
186855,4.33,-4.76,28.29,0.71,8.11,1.67
186890,1.45,-3.45,28.68,0.72,8.16,1.56
186925,-1.30,-3.23,27.90,0.80,8.19,1.38
186960,-4.07,-4.16,25.40,0.95,8.15,1.29
186995,-5.04,-2.77,22.98,1.09,8.09,1.31
187030,-6.34,-4.89,20.19,1.12,8.04,1.37
187065,-6.96,-3.24,17.63,0.95,8.02,1.40
187100,-6.73,-2.17,15.06,0.85,8.01,1.37
187135,-6.29,-0.71,12.39,0.81,8.00,1.30
187175,-3.65,0.64,10.55,0.85,7.96,1.24
187210,-1.36,0.02,8.44,0.89,7.92,1.15
187245,-0.20,-0.51,6.74,0.99,7.89,1.05
187280,3.90,1.67,7.91,1.12,7.93,0.96
187316,7.03,2.10,9.66,1.32,7.86,0.93
187350,9.81,-1.06,10.18,1.51,7.83,1.01
187386,10.32,-1.52,11.00,1.59,7.81,1.14
187420,10.56,-2.22,13.66,1.58,7.80,1.34
187456,11.36,-4.39,15.63,1.40,7.83,1.47
187490,10.74,-5.59,18.55,1.20,7.89,1.56
187525,10.18,-5.81,22.08,1.07,7.95,1.55
187560,9.42,-5.39,24.53,0.96,7.99,1.50
187595,7.01,-6.11,26.71,0.88,7.97,1.39
187630,4.12,-4.96,27.04,0.84,7.97,1.30
187665,1.11,-5.33,26.17,0.90,7.92,1.24
187700,-1.24,-6.22,26.03,0.97,7.85,1.28
187735,-3.85,-4.77,25.34,0.95,7.87,1.35
187770,-5.90,-4.70,22.78,0.90,7.87,1.43
187805,-6.20,-3.95,19.88,0.73,7.85,1.45
187841,-6.56,-3.13,16.48,0.65,7.78,1.39
187875,-8.15,-1.10,14.62,0.59,7.74,1.28
187910,-8.40,-1.45,12.92,0.61,7.80,1.22
187945,-5.19,0.04,10.99,0.59,7.87,1.13
187980,-3.09,0.81,9.22,0.66,7.92,0.96
188015,0.02,0.93,8.26,0.77,7.94,0.92
188050,1.65,0.67,7.91,0.87,7.91,1.00
188085,4.19,-0.90,6.95,0.89,7.83,1.16
188120,6.77,-4.05,6.86,0.89,7.78,1.29
188155,8.79,-2.71,10.11,0.82,7.71,1.34
188190,10.62,-3.26,11.68,0.83,7.67,1.38
188225,11.39,-2.33,14.43,0.85,7.72,1.41
188260,11.39,-3.94,17.99,0.94,7.72,1.45
188296,11.46,-4.47,20.23,1.05,7.66,1.61
188330,9.88,-5.22,22.23,1.12,7.59,1.80
188366,8.17,-7.60,23.68,1.08,7.48,2.01
188400,5.94,-5.81,24.87,0.97,7.43,2.14
188435,2.70,-7.04,25.12,0.86,7.43,2.17
188470,0.54,-6.34,24.81,0.66,7.39,2.22
188505,-2.32,-5.93,24.21,0.44,7.41,2.15
188540,-4.31,-5.02,23.74,0.32,7.47,2.03
188575,-6.73,-3.02,22.54,0.32,7.53,1.90
188610,-8.03,-2.14,19.94,0.48,7.58,1.77
188645,-7.21,-2.35,17.22,0.65,7.61,1.74
188680,-7.04,-2.60,14.12,0.91,7.57,1.85
188715,-5.39,-4.40,10.51,1.01,7.50,2.04
188750,-3.27,-6.42,7.76,1.04,7.36,2.27
188785,-3.74,-7.06,5.63,0.86,7.32,2.40
188820,-1.94,-5.22,5.80,0.69,7.32,2.40
188855,0.39,-5.63,5.87,0.43,7.37,2.28
188891,1.81,-2.38,4.95,0.38,7.50,1.94
188925,5.55,0.13,7.32,0.46,7.70,1.63
188960,8.73,-2.38,10.04,0.61,7.77,1.49
188995,11.02,-2.73,12.22,0.64,7.78,1.46
189030,11.56,-5.95,14.71,0.43,7.71,1.40
189065,12.01,-5.85,16.56,0.24,7.63,1.26
189100,11.51,-5.14,18.88,0.14,7.62,1.04
189135,9.75,-3.15,21.50,0.17,7.62,0.88
189170,8.52,-1.11,23.73,0.36,7.62,0.97
189210,5.88,-2.94,25.28,0.51,7.59,1.24
189245,3.38,-4.97,25.49,0.54,7.61,1.52
189280,0.33,-4.80,25.74,0.45,7.54,1.65
189315,-1.36,-3.49,24.99,0.31,7.62,1.64
189350,-3.00,-2.16,23.49,0.31,7.63,1.54
189385,-5.46,-0.96,21.98,0.36,7.64,1.40
189420,-7.31,-1.39,20.01,0.47,7.65,1.30
189455,-7.68,-1.59,17.35,0.56,7.68,1.24
189490,-7.30,-1.46,14.68,0.56,7.69,1.19
189525,-7.92,0.54,12.39,0.53,7.72,1.10
189560,-5.21,1.90,10.41,0.59,7.74,1.04
189595,-2.83,0.43,8.43,0.68,7.75,0.93
189630,-1.87,2.90,7.51,0.79,7.75,0.83
189665,0.71,1.83,7.17,0.89,7.77,0.90
189700,3.53,-0.26,6.39,1.02,7.73,0.99
189735,5.58,0.54,7.88,1.05,7.75,1.10
189770,8.71,-1.47,9.45,1.12,7.75,1.17
189805,10.29,-1.00,12.56,1.21,7.75,1.25
189840,12.17,-3.08,14.99,1.27,7.71,1.32
189875,12.63,-3.36,17.55,1.31,7.64,1.43
189910,11.43,-3.78,19.95,1.40,7.53,1.58
189945,9.75,-5.73,21.51,1.31,7.49,1.67
189980,7.81,-6.03,23.07,1.17,7.49,1.64
190015,6.23,-4.90,24.61,1.10,7.52,1.58
190050,3.44,-5.52,25.76,1.08,7.59,1.43
190085,0.73,-4.09,26.23,1.14,7.62,1.36
190120,-2.00,-4.36,25.73,1.29,7.66,1.30
190155,-3.29,-4.27,22.89,1.48,7.65,1.29
190190,-5.75,-3.93,22.36,1.60,7.62,1.43
190225,-7.99,-5.88,20.36,1.60,7.62,1.58
190260,-7.70,-5.44,17.20,1.58,7.63,1.80
190295,-9.11,-6.44,14.96,1.46,7.66,1.97
190331,-8.45,-5.20,12.58,1.33,7.68,2.19
190365,-5.13,-5.99,9.45,1.22,7.64,2.40
190400,-3.16,-6.21,7.08,1.01,7.64,2.56
190435,-1.58,-5.80,6.77,0.72,7.68,2.51
190470,0.65,-5.70,6.94,0.49,7.81,2.37
190505,4.13,-5.32,7.07,0.36,7.86,2.19
190540,6.29,-3.87,8.14,0.21,8.00,2.07
190575,9.76,-2.62,11.08,0.16,8.08,1.91
190610,11.60,-2.57,14.84,0.16,8.12,1.72
190645,12.02,-3.57,17.89,0.14,8.13,1.53
190680,11.52,-3.39,20.37,0.19,8.15,1.41
190715,10.72,-2.90,22.88,0.30,8.14,1.30
190750,9.81,-2.34,25.15,0.37,8.12,1.19
190785,6.30,-3.41,26.66,0.49,8.04,1.20
190820,4.78,-3.54,28.15,0.60,8.03,1.19
190855,2.60,-2.28,28.57,0.70,8.05,1.15
190890,-0.89,-1.17,27.24,0.79,8.06,1.05
190925,-3.45,-2.02,25.62,0.96,8.06,1.03
190960,-5.30,-2.25,23.60,1.10,8.04,1.09
190995,-6.56,-1.49,21.18,1.25,7.97,1.17
191030,-7.40,-3.47,17.48,1.27,7.94,1.28
191065,-7.77,-2.47,15.11,1.20,7.92,1.33
191100,-6.51,-1.23,12.93,1.17,7.91,1.42
191135,-4.13,-1.64,10.41,1.11,7.85,1.43
191170,-2.22,-1.20,8.01,1.06,7.85,1.36
191205,1.91,0.24,7.86,1.06,7.84,1.32
191245,5.36,-0.77,7.27,1.09,7.73,1.33
191280,7.10,-2.15,7.07,1.10,7.62,1.39
191316,8.60,-0.17,7.52,1.04,7.56,1.48
191350,8.77,-1.97,9.34,1.09,7.50,1.51
191386,10.19,-1.04,11.79,1.16,7.45,1.53
191420,10.92,-2.90,14.09,1.26,7.43,1.62
191455,11.35,-2.68,16.81,1.27,7.39,1.74
191490,11.15,-5.23,18.95,1.18,7.37,1.79
191525,9.82,-6.43,21.24,0.99,7.39,1.77
191560,7.89,-6.31,22.51,0.88,7.39,1.63
191595,5.53,-4.54,24.10,0.78,7.41,1.50
191630,3.00,-4.22,25.02,0.78,7.50,1.35
191665,0.51,-5.16,24.85,0.81,7.49,1.37
191700,-2.00,-3.25,24.87,0.78,7.53,1.32
191735,-4.26,-3.86,23.20,0.78,7.53,1.29
191770,-6.05,-1.99,21.72,0.76,7.52,1.25
191805,-6.65,-3.16,18.62,0.72,7.49,1.21
191841,-8.06,-1.18,16.48,0.63,7.46,1.13
191875,-7.49,-1.59,13.58,0.62,7.46,1.05
191910,-6.49,0.62,11.24,0.57,7.48,0.91
191945,-5.12,1.13,9.13,0.58,7.45,0.74
191980,-4.07,2.24,7.68,0.69,7.44,0.61
192015,-2.92,2.19,6.05,0.85,7.44,0.61
192050,-0.57,0.87,5.68,1.00,7.46,0.71
192085,3.17,0.17,5.65,1.12,7.45,0.84
192120,5.70,0.33,7.34,1.23,7.46,0.96
192155,8.74,0.84,8.34,1.41,7.50,1.03
192190,9.60,-1.31,9.88,1.57,7.57,1.19
192225,10.55,-1.97,13.05,1.67,7.61,1.38
192260,11.07,-3.66,15.45,1.75,7.63,1.62
192295,11.20,-5.97,18.33,1.65,7.67,1.86
192330,10.09,-7.83,21.51,1.47,7.67,2.04
192366,7.67,-7.16,23.77,1.25,7.65,2.13
192400,6.18,-6.81,25.71,1.03,7.69,2.15
192435,4.28,-7.92,26.63,0.87,7.82,2.03
192470,0.70,-6.95,26.41,0.79,7.95,1.85
192505,-1.83,-5.01,26.42,0.81,8.00,1.66
192540,-3.59,-6.54,24.63,0.81,7.98,1.61
192575,-5.63,-5.98,21.83,0.68,7.93,1.61
192610,-7.50,-4.57,19.48,0.57,7.87,1.56
192645,-7.55,-4.21,17.34,0.49,7.86,1.46
192680,-8.12,-2.69,15.10,0.35,7.86,1.27
192715,-7.61,-0.50,12.42,0.31,7.89,1.08
192750,-4.11,0.74,10.18,0.38,7.88,0.96
192785,-1.73,1.09,8.75,0.54,7.91,0.79
192820,0.15,0.72,7.62,0.73,7.93,0.77
192855,2.60,0.84,7.72,0.89,7.96,0.93
192890,4.67,-1.32,7.41,0.94,7.95,1.16
192925,6.83,-3.93,8.70,0.99,8.00,1.31
192960,8.67,-3.25,12.05,1.07,7.95,1.39
192995,10.33,-1.23,13.28,1.33,7.92,1.45
193030,11.86,-2.08,15.98,1.57,7.94,1.61
193065,11.10,-5.01,19.35,1.76,7.86,1.98
193100,9.99,-6.76,22.50,1.77,7.77,2.42
193135,7.87,-9.44,24.51,1.53,7.80,2.71
193170,5.60,-8.58,26.97,1.16,7.89,2.80
193205,3.41,-9.27,27.60,0.80,8.00,2.66
193239,0.28,-8.89,28.26,0.46,8.09,2.41
193279,-3.17,-7.30,27.96,0.33,8.19,2.22
193315,-5.52,-8.62,24.95,0.06,8.23,2.12
193349,-6.42,-5.57,23.00,-0.29,8.20,1.96
193384,-6.85,-3.96,20.13,-0.54,8.22,1.64
193419,-8.07,-0.61,18.86,-0.62,8.32,1.20
193454,-10.79,2.20,17.70,-0.36,8.51,0.93
193489,-8.17,3.15,14.85,0.05,8.72,0.88
193524,-3.77,1.71,12.74,0.36,8.73,0.83
193559,1.47,1.57,12.04,0.62,8.73,0.77
193594,5.41,1.83,11.92,0.87,8.73,0.71
193629,8.03,1.32,12.40,1.18,8.65,0.67
193664,10.20,0.73,13.92,1.51,8.51,0.78
193699,10.10,-0.74,14.32,1.69,8.47,1.02
193734,11.48,-4.16,17.80,1.62,8.51,1.29
193769,11.54,-6.80,21.21,1.44,8.56,1.48
193804,11.50,-7.84,24.26,1.21,8.58,1.50
193840,9.81,-7.60,25.90,1.02,8.47,1.42
193874,7.38,-7.75,26.14,1.03,8.20,1.50
193909,3.24,-6.54,26.57,0.99,7.95,1.75
193944,0.46,-8.71,25.55,0.82,7.78,2.02
193979,-1.58,-8.95,25.25,0.54,7.65,2.21
194014,-3.97,-6.33,25.55,0.32,7.70,2.11
194049,-6.01,-5.21,24.33,0.20,7.80,1.93
194084,-7.55,-4.14,21.21,0.31,7.87,1.74
194119,-4.64,-2.42,17.47,0.39,7.96,1.62
194154,-5.85,-3.84,13.84,0.46,7.84,1.46
194189,-6.98,-4.41,11.60,0.41,7.76,1.30
194224,-7.46,-0.61,10.81,0.38,7.85,1.04
194259,-1.83,3.98,9.61,0.44,7.98,0.57
194294,0.17,4.91,7.57,0.71,7.97,0.34
194329,-0.30,2.94,7.10,0.94,8.01,0.51
194364,4.24,-0.17,7.47,1.06,8.02,0.81
194399,7.67,-2.74,9.26,1.16,8.01,1.01
194434,9.54,-1.49,11.84,1.27,7.97,1.13
194469,11.19,-2.47,13.96,1.47,7.97,1.25
194504,11.72,-2.92,16.89,1.70,7.96,1.49
194539,10.78,-3.11,20.37,1.91,7.89,1.88
194574,10.25,-7.10,22.33,1.96,7.80,2.41
194609,9.56,-9.98,24.84,1.63,7.88,2.69
194644,6.29,-10.38,27.21,1.26,8.03,2.74
194679,4.07,-12.35,28.64,0.94,8.16,2.59
194714,0.25,-9.73,28.25,0.66,8.28,2.42
194749,-2.90,-8.40,26.78,0.47,8.26,2.30
194784,-4.59,-9.04,23.70,0.16,8.17,2.18
194819,-5.94,-6.76,22.01,-0.24,8.10,2.01
194854,-7.90,-4.34,20.53,-0.57,8.14,1.69
194889,-9.45,-0.08,19.28,-0.68,8.31,1.25
194925,-12.81,0.79,19.70,-0.42,8.58,1.00
194959,-7.40,2.72,15.12,-0.01,8.73,0.92
194994,-4.30,2.32,12.65,0.33,8.73,0.89
195029,2.41,0.81,11.49,0.58,8.73,0.95
195063,4.69,-0.44,11.25,0.72,8.66,0.96
195098,7.02,-1.64,10.47,0.88,8.42,0.96
195133,10.22,-2.32,11.04,1.14,8.31,0.93
195168,10.55,-2.97,13.11,1.35,8.26,1.01
195203,11.48,-3.48,15.82,1.47,8.24,1.21
195238,12.85,-4.68,18.68,1.47,8.25,1.40
195273,11.75,-6.78,21.78,1.49,8.21,1.62
195313,9.71,-6.55,24.87,1.37,8.18,1.81
195348,6.17,-7.94,26.22,1.25,8.08,1.92
195383,3.52,-9.45,25.85,1.07,7.91,2.02
195418,1.87,-9.31,25.77,0.89,7.78,2.02
195453,-1.02,-7.35,25.34,0.80,7.68,2.02
195488,-3.88,-6.27,24.22,0.67,7.63,1.92
195523,-6.34,-6.65,22.81,0.59,7.64,1.80
195558,-6.88,-4.69,20.51,0.50,7.66,1.75
195593,-6.66,-4.92,16.78,0.48,7.69,1.66
195628,-7.09,-3.93,14.65,0.39,7.69,1.49
195664,-7.17,-2.17,13.13,0.33,7.74,1.33
195698,-6.76,-0.62,11.37,0.27,7.85,1.04
195733,-5.90,1.27,9.88,0.32,7.96,0.68
195768,-2.26,6.60,9.57,0.54,8.07,0.18
195803,0.49,7.05,8.19,0.88,8.08,-0.02
195838,4.51,5.15,8.00,1.23,8.09,0.05
195873,6.70,1.21,8.40,1.43,8.06,0.41
195908,8.97,-3.56,9.84,1.41,8.06,0.75
195943,10.95,-5.08,13.21,1.26,8.08,1.03
195978,12.02,-4.11,16.68,1.09,8.06,1.14
196013,12.27,-5.66,19.21,1.00,7.97,1.20
196048,9.69,-6.33,20.56,0.87,7.83,1.18
196083,9.00,-6.03,22.27,0.87,7.73,1.15
196118,8.76,-6.12,25.41,0.99,7.77,1.37
196153,5.27,-5.68,26.58,0.99,7.74,1.59
196188,2.01,-7.95,25.15,0.90,7.60,1.79
196223,0.02,-7.82,22.21,0.84,7.34,1.89
196258,-1.67,-6.15,18.87,0.67,7.14,1.87
196293,-6.98,-4.78,24.03,0.60,7.25,1.74
196329,-9.95,-3.51,25.94,0.65,7.59,1.71
196363,-6.70,-4.94,18.69,0.65,7.69,1.71
196398,-3.89,-3.71,13.48,0.46,7.51,1.58
196433,-6.36,-1.53,11.89,0.59,7.28,1.51
196468,-8.46,-3.46,9.77,0.73,7.23,1.64
196503,-7.14,-2.21,8.33,0.71,7.32,1.68
196538,-4.98,-3.01,7.34,0.69,7.46,1.76
196573,-1.21,-4.19,6.50,0.62,7.53,1.73
196608,0.62,-1.22,6.21,0.56,7.58,1.57
196643,4.39,-0.83,6.79,0.62,7.55,1.42
196678,6.56,-1.53,6.90,0.66,7.46,1.35
196713,8.78,-2.45,7.93,0.72,7.42,1.27
196748,10.08,-1.44,10.35,0.79,7.41,1.28
196783,12.36,-3.10,12.30,0.77,7.42,1.32
196819,11.78,-3.38,15.38,0.80,7.42,1.32
196853,10.71,-4.35,17.45,0.87,7.37,1.35
196888,9.71,-4.13,19.92,0.86,7.34,1.34
196923,8.77,-5.43,21.55,0.82,7.32,1.30
196958,6.36,-4.30,23.29,0.82,7.34,1.35
196993,4.48,-5.09,24.75,0.78,7.38,1.37
197028,1.87,-5.05,25.06,0.73,7.50,1.38
197063,-0.66,-5.14,25.47,0.68,7.56,1.43
197098,-3.70,-3.38,24.81,0.56,7.60,1.50
197133,-5.28,-5.81,23.41,0.27,7.68,1.56
197168,-6.70,-3.29,21.24,-0.08,7.72,1.53
197203,-7.06,-1.46,18.75,-0.30,7.75,1.32
197238,-9.39,0.19,17.79,-0.47,7.85,0.99
197273,-8.14,2.76,14.80,-0.47,7.96,0.65
197308,-6.08,6.20,12.53,-0.32,8.03,0.36
197348,-4.79,5.86,10.77,0.07,8.07,0.19
197384,-3.16,4.64,9.33,0.43,8.07,0.44
197418,-0.93,1.33,7.26,0.62,8.13,0.85
197453,3.97,-1.55,7.61,0.67,8.13,1.06
197488,7.58,-3.66,9.14,0.59,8.10,1.21
197523,9.41,-3.68,10.43,0.47,8.07,1.20
197558,11.22,-5.22,13.32,0.39,8.04,1.14
197593,12.10,-5.65,16.77,0.26,8.00,1.02
197628,12.43,-5.13,18.28,0.09,7.93,0.80
197663,10.49,-5.32,20.07,0.09,7.90,0.55
197698,8.72,-3.22,22.47,0.28,7.94,0.37
197733,8.08,-2.01,24.28,0.51,7.96,0.23
197768,5.84,-1.87,25.98,0.71,7.98,0.22
197803,3.21,-2.28,27.21,1.01,8.05,0.35
197838,0.54,-3.68,28.11,1.25,8.09,0.60
197873,-2.98,-5.58,27.07,1.33,8.12,0.90
197908,-5.58,-3.97,25.38,1.31,8.14,1.13
197943,-6.48,-2.90,22.90,1.39,8.13,1.26
197978,-6.56,-3.35,19.88,1.49,8.08,1.39
198013,-7.35,-4.84,16.84,1.50,8.01,1.54
198048,-7.41,-3.90,14.52,1.30,8.03,1.63
198083,-5.38,-2.13,12.21,1.12,8.10,1.56
198118,-4.51,-0.01,10.70,1.03,8.14,1.50
198153,-1.39,-0.01,9.29,1.02,8.15,1.41
198188,1.30,-0.22,8.64,1.06,8.11,1.36
198223,5.71,1.45,8.93,1.21,8.05,1.26
198258,8.02,2.06,9.79,1.32,7.96,1.24
198293,10.12,-0.87,11.42,1.45,7.88,1.31
198329,11.68,-0.78,13.58,1.60,7.82,1.44
198363,11.84,-1.22,15.57,1.70,7.76,1.57
198398,11.50,-4.53,17.56,1.64,7.72,1.74
198433,10.66,-7.24,19.51,1.41,7.71,1.82
198468,9.44,-8.40,22.07,1.07,7.80,1.65
198503,8.30,-6.50,23.99,0.81,7.87,1.30
198538,5.45,-3.92,25.65,0.75,7.90,0.99
198573,3.12,-5.46,25.66,0.84,7.92,1.03
198608,0.16,-7.60,26.74,0.82,7.89,1.50
198643,-2.36,-5.96,26.36,0.60,7.93,1.69
198678,-5.00,-4.54,25.65,0.38,7.98,1.71
198713,-6.28,-2.77,24.09,0.26,8.04,1.63
198748,-6.74,-1.93,20.84,0.30,8.07,1.54
198783,-6.41,-1.26,17.22,0.48,8.04,1.50
198819,-5.98,-1.77,14.26,0.68,7.96,1.54
198853,-5.04,-1.85,11.00,0.75,7.88,1.59
198888,-3.54,-2.32,8.72,0.80,7.76,1.67
198923,-1.63,-1.13,7.40,0.72,7.71,1.60
198958,0.13,-2.23,6.39,0.69,7.72,1.49
198993,3.09,-0.93,6.60,0.70,7.77,1.43
199028,5.22,-1.33,8.17,0.66,7.82,1.46
199063,8.88,-4.61,9.47,0.58,7.86,1.50
199098,10.35,-2.52,11.54,0.55,7.82,1.46
199133,11.19,-4.30,13.72,0.44,7.78,1.39
199168,11.57,-3.58,15.82,0.43,7.77,1.30
199203,11.58,-4.14,18.52,0.51,7.80,1.25
199238,10.31,-2.72,21.17,0.60,7.80,1.20
199273,9.88,-4.33,23.21,0.65,7.85,1.15
199308,7.23,-4.04,25.49,0.71,7.89,1.15
199343,4.52,-4.39,26.65,0.77,7.93,1.16
199383,1.18,-5.07,26.93,0.89,7.99,1.19
199418,-0.99,-4.06,26.76,1.00,7.98,1.20
199453,-3.58,-3.53,25.30,1.03,7.95,1.24
199488,-5.88,-2.60,23.82,1.07,7.94,1.27
199523,-6.50,-4.19,20.31,0.96,7.91,1.35
199558,-7.63,-2.76,17.53,0.73,7.90,1.36
199593,-7.11,-1.40,15.02,0.66,7.88,1.30
199628,-6.50,-0.91,12.88,0.59,7.86,1.20
199663,-3.62,2.54,10.33,0.56,7.80,1.05
199698,-3.37,1.58,8.20,0.63,7.79,1.02
199733,-1.24,-0.21,7.37,0.74,7.78,1.11
199768,1.01,0.12,7.38,0.80,7.77,1.24
199803,2.92,-1.51,6.03,0.79,7.74,1.32
199839,5.18,-1.76,7.67,0.76,7.80,1.40
199873,8.75,-0.03,10.59,0.88,7.84,1.31
199908,11.23,-1.62,12.56,1.01,7.79,1.32
199943,12.25,-0.60,15.68,1.07,7.78,1.37
199979,11.61,-1.84,18.17,1.22,7.74,1.48
200013,11.33,-6.02,19.75,1.12,7.71,1.51
200048,9.22,-5.23,22.07,0.96,7.73,1.37
200084,7.43,-5.14,23.66,0.92,7.69,1.14
200118,5.70,-4.17,25.22,0.90,7.67,0.92
200153,3.42,-2.35,26.00,1.02,7.74,0.68
200188,0.10,-2.78,25.91,1.32,7.69,0.59
200223,-1.70,-1.70,26.31,1.59,7.69,0.63
200258,-3.96,-3.38,23.22,1.87,7.66,0.78
200293,-6.66,-2.26,22.45,2.12,7.62,1.00
200329,-7.52,-4.22,20.59,2.45,7.61,1.30
200364,-7.99,-6.73,17.32,2.56,7.59,1.71
200398,-9.38,-7.87,15.03,2.43,7.63,2.08
200433,-9.62,-8.40,13.12,2.18,7.75,2.36
200468,-9.15,-6.17,10.90,1.71,7.99,2.21
200504,-3.17,-0.74,10.03,1.45,8.21,1.90
200538,2.67,-0.48,11.33,1.36,8.25,1.63
200573,5.16,0.85,9.55,1.50,8.26,1.40
200608,7.58,0.08,10.86,1.64,8.17,1.40
200643,9.83,-0.03,12.50,1.64,8.08,1.54
200678,10.45,-3.30,13.94,1.68,7.97,1.67
200713,11.82,-3.29,15.12,1.65,7.86,1.83
200748,11.77,-5.15,17.31,1.53,7.80,1.99
200783,10.59,-5.96,19.95,1.40,7.81,2.11
200818,9.79,-6.77,22.89,1.25,7.81,2.22
200853,8.44,-6.38,24.69,1.07,7.78,2.29
200888,5.55,-6.71,26.37,0.89,7.74,2.42
200923,3.22,-7.30,27.09,0.71,7.77,2.50
200958,0.71,-8.13,27.05,0.38,7.82,2.49
200993,-1.85,-5.63,26.48,0.13,7.92,2.35
201028,-5.32,-4.56,26.70,0.06,8.06,2.10
201063,-6.87,-2.00,25.12,0.21,8.20,1.84
201098,-6.84,-1.75,21.71,0.44,8.29,1.69
201133,-6.08,-3.17,17.84,0.47,8.31,1.60
201168,-6.69,-1.73,15.59,0.44,8.32,1.48
201203,-4.13,0.81,12.25,0.39,8.33,1.29
201238,-1.45,0.61,10.77,0.41,8.36,1.14
201273,-0.51,1.24,9.86,0.59,8.32,0.95
201308,0.62,-1.28,8.60,0.61,8.32,1.15
201343,3.34,-2.96,8.66,0.67,8.35,1.30
201378,6.00,-3.24,9.38,0.58,8.44,1.44
201418,9.26,-6.80,12.78,0.35,8.43,1.52
201453,11.23,-5.45,15.63,0.24,8.39,1.43
201488,11.80,-3.50,18.42,0.19,8.35,1.27
201523,11.96,-2.84,21.25,0.35,8.36,1.18
201558,10.97,-2.64,24.31,0.54,8.34,1.18
201593,9.52,-3.12,26.23,0.72,8.29,1.28
201628,7.24,-4.86,27.86,0.81,8.22,1.45
201663,4.19,-5.32,28.27,0.87,8.21,1.49
201698,1.39,-3.52,28.76,0.93,8.22,1.38
201733,-1.67,-3.00,28.86,1.14,8.29,1.21
201768,-3.88,-3.75,26.13,1.45,8.29,1.16
201803,-5.40,-3.86,23.76,1.73,8.26,1.25
201839,-6.99,-5.88,21.07,1.74,8.22,1.46
201874,-6.78,-6.47,18.41,1.59,8.25,1.65
201908,-7.04,-5.43,15.58,1.30,8.32,1.66
201943,-5.23,-4.45,13.23,1.09,8.39,1.55
201978,-4.90,-3.53,11.20,1.01,8.39,1.39
202013,-2.22,-1.33,10.01,1.05,8.39,1.19
202048,-0.45,1.13,10.27,1.14,8.44,1.07
202083,4.47,3.33,11.24,1.29,8.50,1.04
202118,7.62,0.99,12.50,1.44,8.51,1.12
202153,10.90,-1.42,13.80,1.54,8.46,1.28
202188,12.44,-3.58,15.96,1.56,8.38,1.45
202223,12.71,-2.97,18.27,1.54,8.26,1.64
202258,12.18,-3.17,20.20,1.48,8.20,1.83
202293,11.18,-7.06,22.27,1.41,8.22,1.97
202328,9.56,-5.75,25.68,1.28,8.26,2.06
202363,7.25,-8.09,27.41,1.12,8.28,1.99
202398,4.85,-7.28,28.62,1.01,8.32,1.80
202433,1.67,-5.40,28.84,1.02,8.39,1.54
202468,-1.29,-5.02,28.48,1.19,8.44,1.36
202502,-3.18,-4.87,26.06,1.31,8.41,1.32
202537,-5.71,-6.27,25.13,1.24,8.37,1.49
202572,-8.42,-7.21,23.71,0.79,8.43,1.61
202607,-9.44,-3.37,21.15,0.48,8.52,1.58
202642,-5.62,-2.09,16.84,0.32,8.57,1.41
202677,-5.20,-0.89,14.12,0.44,8.56,1.34
202712,-4.51,-2.92,11.69,0.65,8.51,1.52
202747,-0.42,-5.07,10.20,0.74,8.46,1.81
202782,1.37,-7.24,9.69,0.59,8.33,2.27
202817,3.84,-6.74,9.71,0.26,8.24,2.53
202852,5.53,-3.39,10.65,0.14,8.32,2.30
202887,8.21,-0.62,13.16,0.29,8.42,1.93
202921,11.35,0.60,15.54,0.72,8.50,1.71
202956,13.42,-1.83,18.79,1.05,8.51,1.73
202991,13.10,-3.19,21.79,1.22,8.41,1.87
203026,11.56,-6.10,23.32,1.17,8.33,1.99
203061,9.23,-5.94,26.11,0.97,8.38,1.88
203096,5.83,-5.31,26.99,0.81,8.38,1.68
203131,3.66,-5.88,28.85,0.74,8.38,1.63
203165,0.65,-5.41,31.04,0.80,8.50,1.59
203200,-1.12,-6.73,28.99,0.90,8.60,1.60
203235,-3.49,-5.26,27.60,0.86,8.60,1.63
203270,-5.87,-3.14,26.74,0.90,8.58,1.65
203305,-6.12,-4.23,22.69,0.97,8.60,1.69
203341,-5.37,-3.48,19.31,1.13,8.54,1.76
203376,-4.70,-4.93,15.21,1.23,8.43,1.90
203410,-2.69,-6.39,12.45,1.16,8.31,1.97
203450,-4.62,-0.29,10.88,0.92,8.32,1.71
203485,-2.37,0.79,9.04,0.90,8.41,1.56
203520,2.22,0.09,9.54,0.89,8.43,1.50
203555,7.21,-0.55,9.05,0.91,8.32,1.37
203590,8.93,-1.00,12.70,0.95,8.15,1.40
203624,8.47,-4.85,12.17,0.69,7.90,1.55
203659,8.87,-1.45,13.13,0.54,7.94,1.55
203694,11.43,-1.75,15.62,0.71,8.18,1.57
203729,13.17,-3.65,20.28,0.78,8.42,1.62
203764,11.95,-5.95,24.49,0.85,8.45,1.69
203799,9.22,-4.19,26.44,0.79,8.33,1.65
203835,5.23,-5.91,24.53,0.74,8.15,1.56
203869,3.01,-5.30,27.58,0.68,8.14,1.55
203904,0.80,-7.41,31.62,0.69,8.32,1.65
203939,-1.16,-7.80,28.47,0.58,8.36,1.73
203974,-4.07,-6.08,26.80,0.37,8.34,1.78
204009,-6.95,-3.12,27.13,0.20,8.46,1.74
204044,-6.43,-1.10,23.17,0.30,8.57,1.59
204079,-5.94,-1.25,19.05,0.46,8.52,1.46
204114,-5.02,-1.91,16.10,0.63,8.46,1.43
204149,-3.85,-1.93,13.38,0.71,8.39,1.42
204184,-3.65,-0.87,10.50,0.76,8.29,1.38
204219,-1.77,0.71,9.00,0.76,8.25,1.20
204254,1.24,2.87,9.18,0.86,8.21,0.96
204289,3.87,2.93,8.96,1.08,8.20,0.98
204324,5.91,-0.49,10.19,1.15,8.26,1.10
204359,9.25,-1.93,11.64,1.26,8.29,1.23
204394,11.37,-3.87,14.15,1.23,8.35,1.37
204428,12.21,-4.85,17.26,1.13,8.36,1.46
204463,11.86,-4.99,20.28,1.07,8.35,1.45
204498,10.64,-5.33,23.35,1.08,8.32,1.48
204533,10.48,-4.97,24.85,1.06,8.28,1.54
204568,8.38,-6.85,26.43,1.04,8.26,1.57
204603,4.85,-7.04,26.98,1.02,8.19,1.72
204638,2.43,-5.55,28.60,0.96,8.19,1.78
204673,-1.37,-5.52,28.08,0.89,8.16,1.79
204708,-3.48,-5.75,26.43,0.88,8.14,1.77
204743,-5.35,-4.95,24.09,0.85,8.12,1.76
204778,-6.78,-3.85,21.50,0.94,8.07,1.76
204813,-5.40,-4.47,16.87,1.11,7.96,1.83
204848,-6.26,-4.21,13.95,1.20,7.80,1.95
204883,-7.25,-4.81,12.02,1.17,7.74,2.14
204918,-5.37,-5.77,10.33,1.09,7.71,2.36
204953,-4.56,-7.73,8.24,0.95,7.72,2.53
204988,-2.55,-6.96,7.11,0.71,7.75,2.61
205023,1.19,-6.57,7.06,0.43,7.81,2.59
205058,4.01,-7.24,7.21,0.20,7.86,2.46
205093,6.12,-6.10,8.85,0.05,7.92,2.24
205128,7.69,-1.80,11.38,0.13,8.04,1.94
205163,10.40,0.03,14.55,0.41,8.22,1.78
205197,12.24,-2.64,17.54,0.63,8.36,1.73
205232,12.67,-3.40,21.39,0.84,8.37,1.78
205267,11.18,-2.93,24.10,0.90,8.27,1.92
205302,10.18,-4.02,25.79,0.89,8.18,2.06
205337,6.79,-4.20,26.77,0.78,8.09,2.11
205372,3.71,-5.84,27.47,0.65,8.05,2.05
205407,1.47,-6.03,28.07,0.55,8.08,1.88
205442,-1.27,-5.10,27.97,0.51,8.14,1.74
205483,-4.10,-3.51,26.61,0.57,8.20,1.54
205517,-4.92,-0.54,23.32,0.73,8.14,1.43
205552,-5.99,-2.01,19.47,0.99,8.01,1.39
205587,-5.71,-3.87,16.12,1.15,7.88,1.49
205622,-8.93,-3.43,14.75,1.01,7.89,1.52
205657,-7.64,-1.68,12.53,0.88,8.03,1.47
205692,-4.30,0.97,11.40,0.81,8.06,1.40
205727,-0.22,0.43,9.38,0.82,8.05,1.24
205762,1.57,0.30,8.56,0.90,8.00,1.11
205796,4.19,2.42,8.46,1.02,7.97,1.15
205831,6.13,-1.45,8.60,1.04,7.95,1.26
205865,7.69,-2.74,9.39,1.08,7.95,1.37
205900,9.46,-1.46,10.98,1.11,7.95,1.45
205934,10.53,-2.66,13.05,1.11,8.01,1.47
205969,10.71,-4.61,16.35,1.05,8.09,1.52
206004,11.23,-5.23,20.08,0.99,8.17,1.54
206039,10.47,-4.79,23.44,0.94,8.18,1.48
206074,9.40,-4.98,25.76,0.88,8.10,1.37
206108,6.70,-4.82,27.04,0.85,7.98,1.26
206144,4.11,-3.71,26.76,0.86,7.89,1.19
206178,0.99,-4.92,26.65,0.95,7.84,1.17
206213,-0.86,-4.05,26.93,1.02,7.90,1.29
206248,-3.51,-4.96,25.44,1.00,7.95,1.39
206283,-5.94,-4.14,24.34,0.94,8.03,1.50
206319,-6.41,-4.80,21.24,0.92,8.06,1.57
206353,-7.22,-3.94,18.35,0.71,8.08,1.58
206388,-8.36,-1.71,16.35,0.69,8.05,1.55
206422,-7.43,-1.88,13.98,0.67,8.07,1.51
206456,-6.83,-0.65,11.85,0.66,8.10,1.55
206491,-3.54,-1.20,10.56,0.71,8.17,1.67
206526,1.16,-2.92,9.96,0.64,8.16,1.88
206561,4.05,-5.67,8.82,0.52,8.18,1.98
206596,5.71,-5.54,9.00,0.38,8.20,1.94
206631,8.62,-4.43,10.24,0.26,8.27,1.84
206666,9.99,-3.55,12.60,0.22,8.22,1.67
206700,10.84,-2.45,14.92,0.22,8.21,1.50
206734,11.30,-3.41,17.73,0.19,8.28,1.37
206769,11.39,-4.29,21.06,0.24,8.40,1.23
206804,10.44,-2.56,24.49,0.31,8.48,1.09
206839,8.90,-2.61,27.55,0.47,8.52,1.00
206874,6.39,-2.69,28.80,0.64,8.45,1.10
206909,3.72,-2.67,29.83,0.78,8.45,1.19
206944,0.33,-3.32,29.09,0.82,8.41,1.28
206979,-2.30,-4.21,28.32,0.84,8.41,1.34
207014,-4.25,-1.81,27.78,0.94,8.45,1.37
207048,-5.79,-2.17,25.75,1.05,8.49,1.42
207083,-7.43,-3.04,22.54,1.16,8.49,1.50
207118,-7.30,-2.31,19.16,1.33,8.45,1.65
207153,-7.08,-4.24,15.43,1.45,8.35,1.87
207188,-4.44,-5.61,12.69,1.38,8.29,2.06
207223,-4.01,-6.08,10.51,1.21,8.33,2.14
207258,-1.75,-3.90,9.84,1.04,8.41,2.02
207293,1.15,-4.64,10.02,0.95,8.51,2.01
207329,5.36,-3.11,11.28,0.93,8.49,1.96
207363,8.10,-3.05,11.92,0.88,8.50,1.93
207398,10.20,-3.12,14.01,0.90,8.47,1.88
207433,11.84,-3.21,17.11,0.91,8.43,1.87
207468,12.68,-3.69,20.05,0.93,8.35,1.87
207508,12.05,-5.55,22.61,0.95,8.27,2.00
207543,9.68,-5.86,25.08,0.87,8.27,2.06
207578,6.84,-6.68,26.41,0.80,8.22,2.11
207613,5.29,-7.52,27.25,0.70,8.14,2.19
207648,2.66,-6.84,27.83,0.57,8.16,2.14
207683,-0.31,-4.81,29.05,0.40,8.17,1.92
207718,-3.51,-2.81,28.15,0.43,8.25,1.66
207753,-6.01,-4.56,26.56,0.43,8.32,1.55
207788,-6.85,-2.92,24.70,0.34,8.35,1.48
207824,-6.63,-2.32,20.75,0.12,8.40,1.33
207858,-6.67,0.13,17.97,-0.08,8.43,1.01
207893,-6.69,4.76,16.32,0.05,8.45,0.82
207928,-4.96,4.95,13.50,0.32,8.47,0.68
207963,-2.20,3.34,11.88,0.56,8.51,0.66
207998,-0.56,2.66,11.22,0.82,8.51,0.88
208033,2.37,1.39,10.33,0.91,8.56,1.14
208068,6.57,-1.33,10.78,0.96,8.53,1.24
208103,10.24,-2.69,11.35,1.04,8.48,1.29
208138,11.40,-2.25,14.09,1.10,8.38,1.31
208173,11.40,-2.01,17.16,1.20,8.28,1.37
208208,11.80,-3.00,18.69,1.32,8.24,1.45
208243,11.10,-4.78,21.22,1.41,8.23,1.64
208278,9.38,-5.80,24.38,1.36,8.29,1.81
208313,8.58,-7.96,26.62,1.24,8.36,1.83
208348,6.45,-6.43,28.34,1.11,8.40,1.76
208383,3.33,-6.58,29.20,1.11,8.49,1.54
208418,0.31,-4.52,28.69,1.29,8.42,1.36
208453,-2.61,-5.04,26.09,1.55,8.30,1.23
208488,-4.03,-4.23,24.27,1.74,8.17,1.28
208523,-7.19,-6.58,22.66,1.80,8.10,1.48
208558,-8.11,-7.82,20.59,1.64,8.17,1.75
208593,-8.31,-6.58,18.44,1.17,8.32,1.85
208628,-6.14,-3.01,15.88,0.93,8.44,1.83
208663,-4.13,-1.48,12.94,0.79,8.41,1.78
208698,-2.94,-1.67,10.11,0.75,8.37,1.79
208733,-0.25,-4.19,8.97,0.72,8.25,1.96
208768,2.33,-7.38,8.28,0.59,8.18,2.04
208803,3.53,-5.02,9.18,0.42,8.15,2.06
208839,6.91,-1.90,11.06,0.33,8.21,1.90
208873,9.33,-0.22,12.56,0.51,8.30,1.67
208908,10.49,-2.54,15.69,0.69,8.35,1.59
208943,12.58,-2.34,19.37,0.91,8.34,1.63
208978,12.42,-3.62,22.17,1.04,8.31,1.75
209013,11.38,-3.07,25.58,1.02,8.25,1.84
209049,7.61,-6.01,25.62,0.97,8.24,1.90
209083,6.58,-3.78,28.02,0.84,8.21,1.83
209118,3.37,-4.98,28.52,0.80,8.30,1.41
209153,1.07,-3.21,28.44,0.92,8.30,1.22
209188,-1.72,-3.12,27.78,1.14,8.30,1.08
209223,-4.19,-5.16,26.61,1.22,8.29,1.21
209258,-6.54,-3.85,25.14,1.10,8.35,1.41
209293,-6.47,-3.01,22.26,0.93,8.41,1.48
209328,-6.88,-1.85,18.99,0.73,8.44,1.39
209363,-8.25,-0.33,16.63,0.71,8.46,1.34
209398,-3.78,1.06,13.97,0.79,8.48,1.29
209433,-1.65,2.31,11.44,0.90,8.39,1.35
209468,-0.19,0.70,9.83,0.95,8.25,1.55
209503,0.91,-1.64,9.40,0.88,8.22,1.63
209543,3.96,1.43,8.85,0.97,8.29,1.55
209578,7.47,0.97,10.87,0.99,8.42,1.54
209613,9.17,-1.78,13.96,1.18,8.40,1.51
209647,10.95,-2.77,16.21,1.31,8.36,1.58
209682,12.51,-2.56,18.75,1.32,8.34,1.71
209717,11.07,-5.42,21.49,1.33,8.36,1.85
209752,10.06,-6.36,24.40,1.18,8.37,1.93
209787,8.06,-6.39,26.65,0.99,8.40,1.85
209822,6.42,-6.54,28.29,0.90,8.40,1.85
209857,3.55,-8.29,29.59,0.88,8.43,1.85
209891,0.84,-7.04,29.36,0.83,8.41,1.91
209925,-1.68,-6.10,27.14,0.71,8.39,1.95
209960,-4.69,-4.42,26.42,0.71,8.38,1.84
209995,-6.08,-3.26,24.24,0.86,8.40,1.77
210030,-6.06,-2.29,21.28,1.01,8.36,1.73
210065,-6.96,-4.59,17.68,1.15,8.31,1.81
210100,-6.22,-5.12,14.79,1.21,8.23,1.97
210135,-3.44,-4.54,12.42,1.12,8.19,2.12
210170,-3.61,-4.54,10.35,0.96,8.16,2.09
210205,-2.65,-2.02,9.19,0.80,8.21,1.88
210240,-0.76,-1.46,8.98,0.74,8.30,1.66
210275,3.96,-2.36,8.80,0.85,8.34,1.47
210310,5.98,-3.95,9.57,0.91,8.41,1.49
210346,8.99,-3.38,13.46,0.84,8.44,1.54
210381,10.59,-2.90,16.34,0.81,8.49,1.52
210415,12.26,-2.64,19.26,0.75,8.56,1.50
210450,11.53,-5.15,22.53,0.82,8.61,1.48
210484,11.03,-4.89,25.31,0.83,8.62,1.45
210519,9.28,-3.94,28.17,0.80,8.59,1.36
210554,6.76,-4.41,28.55,0.83,8.47,1.34
210588,3.81,-4.01,29.04,0.91,8.42,1.25
210623,1.02,-3.11,29.86,1.04,8.40,1.19
210658,-1.86,-3.24,29.19,1.29,8.46,1.12
210693,-4.49,-3.08,29.34,1.60,8.52,1.10
210728,-5.39,-5.02,26.20,1.82,8.58,1.30
210763,-6.47,-6.00,22.47,1.74,8.58,1.56
210798,-7.16,-6.55,18.50,1.50,8.58,1.71
210833,-6.89,-4.42,16.15,1.29,8.58,1.76
210868,-4.58,-3.47,14.18,1.16,8.66,1.75
210903,-3.38,-3.22,12.16,1.06,8.73,1.67
210938,-0.45,-1.77,12.32,1.06,8.73,1.55
210973,3.54,-2.79,11.75,1.09,8.73,1.56
211008,5.65,-4.22,11.53,1.10,8.66,1.61
211043,8.13,-5.31,11.91,1.02,8.63,1.73
211078,10.35,-5.06,15.04,0.90,8.59,1.79
211113,11.01,-4.83,17.32,0.80,8.63,1.79
211148,12.25,-6.24,20.48,0.76,8.69,1.77
211182,11.82,-5.87,24.46,0.75,8.73,1.73
211217,10.41,-5.43,27.31,0.68,8.73,1.64
211252,7.98,-5.70,28.87,0.67,8.73,1.51
211287,5.16,-3.99,29.64,0.66,8.62,1.41
211322,2.89,-4.43,30.10,0.71,8.57,1.37
211357,-1.16,-4.73,29.42,0.70,8.54,1.49
211392,-3.29,-5.66,28.50,0.52,8.55,1.63
211427,-5.24,-2.91,26.99,0.20,8.56,1.67
211462,-6.44,-1.24,23.95,0.10,8.61,1.51
211497,-7.66,-0.99,21.44,0.02,8.62,1.29
211532,-7.50,2.61,19.00,0.12,8.71,1.07
211572,-7.44,-0.28,15.59,0.35,8.73,0.96
211607,-3.98,0.48,13.56,0.54,8.73,0.90
211642,-1.88,0.04,11.82,0.73,8.73,0.89
211677,1.28,0.81,11.00,0.89,8.73,0.97
211711,4.92,-1.63,10.13,0.99,8.69,1.10
211746,7.64,-4.17,11.84,1.09,8.73,1.18
211781,10.03,-3.06,14.40,1.08,8.73,1.30
211816,11.94,-3.87,17.00,1.01,8.73,1.38
211851,12.75,-4.74,20.57,0.96,8.73,1.42
211886,12.24,-5.52,23.72,0.86,8.72,1.38
211921,11.07,-5.29,26.24,0.80,8.68,1.25
211956,8.23,-4.18,27.53,0.82,8.63,1.04
211991,6.74,-3.33,29.56,0.91,8.62,0.85
212026,3.42,-2.67,30.50,1.06,8.72,0.80
212061,0.96,-4.61,29.73,1.27,8.66,0.97
212096,-2.01,-5.49,28.22,1.34,8.60,1.17
212131,-5.26,-4.82,26.93,1.32,8.54,1.36
212166,-7.41,-3.36,25.36,1.32,8.54,1.50
212201,-7.44,-4.29,22.04,1.28,8.55,1.62
212236,-8.30,-3.99,19.59,1.18,8.60,1.70
212271,-7.65,-2.87,16.97,1.13,8.64,1.78
212306,-5.34,-2.95,14.02,1.07,8.67,1.83
212342,-0.26,-4.61,11.69,1.01,8.69,1.85
212376,3.71,-5.69,11.10,0.91,8.65,1.88
212411,5.51,-4.36,10.90,0.82,8.58,1.93
212446,6.40,-3.08,11.93,0.71,8.60,1.90
212481,9.03,-3.47,13.38,0.59,8.64,1.86
212516,11.15,-2.90,15.88,0.54,8.65,1.77
212551,12.65,-2.81,18.58,0.55,8.58,1.66
212586,12.62,-4.10,20.92,0.63,8.51,1.60
212621,12.02,-5.07,23.68,0.78,8.48,1.65
212656,9.90,-4.70,26.06,0.83,8.44,1.71
212691,7.63,-6.24,27.32,0.85,8.36,1.78
212726,4.52,-6.53,28.31,0.82,8.29,1.78
212761,2.31,-3.27,30.47,0.78,8.48,1.60
212796,-0.83,-4.63,28.33,0.80,8.50,1.45
212831,-3.80,-3.54,29.67,0.82,8.51,1.40
212866,-5.03,-1.98,26.89,0.83,8.64,1.46
212901,-5.90,-4.94,22.80,0.75,8.65,1.45
212936,-6.77,-1.13,20.53,0.54,8.64,1.36
212971,-6.21,-1.09,17.41,0.45,8.68,1.19
213006,-5.27,0.49,15.18,0.49,8.69,1.01
213041,-4.30,0.76,13.34,0.71,8.65,1.03
213076,-0.23,1.21,11.48,0.83,8.58,1.09
213111,1.05,0.78,10.39,0.91,8.49,1.26
213146,5.35,0.41,9.89,0.94,8.45,1.37
213181,7.61,-1.07,11.37,0.86,8.45,1.50
213216,10.04,-2.04,13.47,0.82,8.46,1.55
213251,11.79,-3.99,16.02,0.78,8.49,1.59
213286,12.16,-4.55,18.88,0.73,8.53,1.58
213321,11.18,-4.81,22.18,0.72,8.51,1.54
213357,11.02,-4.13,24.28,0.77,8.46,1.54
213391,9.70,-4.16,26.54,0.82,8.46,1.60
213426,6.97,-5.16,28.47,0.86,8.47,1.71
213461,4.06,-4.80,29.43,0.80,8.50,1.78
213496,1.09,-5.08,29.02,0.73,8.52,1.77
213531,-2.17,-5.19,29.62,0.73,8.54,1.70
213566,-5.01,-3.56,28.56,0.80,8.57,1.59
213606,-6.05,-4.53,25.07,0.92,8.58,1.54
213641,-6.03,-4.38,21.44,0.93,8.55,1.54
213676,-6.34,-3.56,18.50,0.86,8.50,1.48
213711,-7.17,-3.03,16.28,0.83,8.54,1.43
213746,-4.78,-2.22,13.89,0.82,8.58,1.35
213781,-3.66,-2.35,11.81,0.86,8.63,1.21
213817,-0.85,0.34,10.35,0.94,8.63,1.08
213851,3.06,0.78,10.89,1.09,8.67,1.03
213886,6.13,2.11,11.36,1.38,8.62,0.92
213921,10.57,0.88,12.93,1.67,8.60,0.98
213956,11.88,-0.94,14.85,1.84,8.52,1.17
213991,12.10,-3.05,16.59,1.90,8.46,1.44
214026,12.20,-5.80,19.32,1.79,8.45,1.67
214061,11.01,-7.13,22.39,1.63,8.50,1.84
214096,9.96,-7.45,25.25,1.45,8.56,1.89
214131,7.44,-7.88,27.90,1.29,8.59,1.86
214166,4.42,-6.55,29.51,1.21,8.62,1.81
214201,2.43,-5.85,30.15,1.12,8.65,1.72
214236,-0.90,-5.82,29.85,1.18,8.61,1.65
214271,-2.95,-5.04,27.89,1.29,8.61,1.64
214306,-4.99,-4.69,25.23,1.30,8.52,1.70
214342,-6.74,-6.16,22.00,1.27,8.43,1.81
214376,-6.63,-5.99,18.71,1.14,8.36,1.90
214411,-6.96,-3.90,16.58,1.04,8.32,1.95
214446,-6.21,-3.43,13.85,0.94,8.31,2.00
214481,-4.09,-1.56,11.73,0.80,8.27,1.99
214516,-2.45,-2.04,9.85,0.68,8.25,1.98
214551,0.80,-3.87,9.04,0.55,8.26,1.97
214586,5.00,-5.41,9.41,0.48,8.30,1.89
214621,6.67,-5.54,10.21,0.38,8.31,1.80
214657,9.85,-3.92,12.39,0.23,8.38,1.73
214691,11.40,-3.88,14.24,0.19,8.43,1.57
214726,12.74,-3.59,17.44,0.04,8.47,1.36
214762,11.80,-4.36,20.73,0.05,8.47,1.14
214796,11.39,-4.42,23.74,0.22,8.52,0.95
214831,10.21,-3.11,26.28,0.35,8.62,0.76
214866,7.51,-3.22,28.17,0.57,8.64,0.68
214901,4.26,-2.63,29.73,0.73,8.65,0.70
214936,1.29,-3.20,30.41,1.00,8.72,0.75
214971,-1.31,-2.45,30.56,1.16,8.73,0.84
215006,-4.34,-3.42,28.72,1.32,8.71,0.99
215041,-6.54,-3.36,26.95,1.38,8.69,1.19
215076,-7.29,-3.61,23.13,1.45,8.66,1.34
215111,-6.25,-4.20,19.34,1.29,8.61,1.47
215146,-6.10,-1.63,16.33,1.20,8.55,1.53
215181,-4.85,-1.22,14.13,1.14,8.51,1.56
215216,-3.73,0.27,11.83,1.07,8.43,1.57
215251,-1.12,0.42,10.20,1.03,8.34,1.66
215286,3.43,-2.65,9.93,0.96,8.28,1.85
215322,5.13,-4.88,8.74,0.83,8.20,1.95
215357,7.27,-5.71,9.88,0.65,8.20,2.03
215391,9.40,-4.23,12.60,0.52,8.22,2.02
215426,11.32,-4.24,14.94,0.51,8.21,1.95
215462,12.62,-3.45,17.55,0.57,8.22,1.87
215496,12.15,-2.71,20.54,0.70,8.21,1.91
215531,10.93,-4.42,22.93,0.78,8.13,2.03
215566,9.56,-4.16,25.47,0.79,8.06,2.19
215601,6.61,-6.14,26.24,0.69,7.97,2.39
215641,3.73,-4.86,27.81,0.46,7.95,2.29
215676,0.94,-4.76,27.99,0.18,8.00,2.08
215711,-1.02,-4.12,26.93,0.05,8.03,1.76
215746,-3.69,-4.47,24.83,0.07,8.02,1.54
215781,-5.89,-1.89,23.39,0.07,8.02,1.40
215817,-7.35,-2.31,21.04,-0.03,8.01,1.23
215851,-6.53,-0.47,17.64,-0.14,8.02,1.00
215886,-7.79,3.84,16.45,-0.06,8.00,0.72
215921,-6.36,2.71,13.32,0.06,8.10,0.45
215956,-6.47,6.45,12.42,0.28,8.21,0.27
215991,-4.46,5.90,11.55,0.58,8.38,0.15
216026,-0.08,5.25,10.34,0.98,8.47,0.14
216061,5.05,2.13,10.20,1.29,8.52,0.33
216096,5.80,-0.11,10.28,1.48,8.49,0.66
216131,9.38,-3.03,12.00,1.58,8.52,0.99
216166,11.06,-4.14,14.81,1.53,8.51,1.27
216201,12.12,-3.37,17.51,1.60,8.48,1.47
216236,12.23,-5.46,20.47,1.63,8.47,1.70
216271,11.06,-6.29,23.46,1.61,8.48,2.00
216306,10.10,-7.95,26.42,1.46,8.51,2.22
216342,7.01,-10.93,28.87,1.33,8.52,2.37
216376,4.22,-10.98,29.87,1.12,8.57,2.38
216411,1.30,-10.18,29.95,0.86,8.63,2.27
216446,-1.53,-8.52,30.00,0.81,8.69,2.13
216481,-4.33,-8.23,28.28,0.72,8.72,1.97
216516,-5.03,-5.91,25.39,0.62,8.71,1.87
216551,-5.20,-5.77,21.11,0.46,8.68,1.77
216586,-6.42,-3.05,19.01,0.23,8.66,1.51
216621,-7.76,-1.56,17.12,0.15,8.72,1.23
216656,-5.19,0.83,15.22,0.21,8.73,0.95
216691,-3.95,2.00,13.65,0.48,8.73,0.72
216726,-1.58,0.03,11.41,0.74,8.73,0.75
216761,2.66,-1.06,12.41,0.96,8.73,0.91
216796,6.06,-1.04,13.83,1.14,8.73,1.08
216831,9.25,-0.45,15.57,1.34,8.73,1.21
216866,11.29,-1.69,18.66,1.62,8.73,1.36
216901,12.00,-4.35,22.49,1.74,8.73,1.63
216936,11.87,-6.72,24.70,1.76,8.73,1.93
216971,11.65,-8.58,27.64,1.64,8.73,2.18
217006,8.76,-10.66,29.20,1.42,8.73,2.34
217041,6.92,-9.49,30.96,1.15,8.73,2.27
217076,2.59,-9.60,32.15,0.89,8.73,2.13
217111,-0.23,-9.37,30.19,0.85,8.73,2.04
217146,-2.90,-7.72,28.92,0.74,8.73,1.98
217181,-5.67,-6.85,27.28,0.52,8.73,1.97
217216,-6.73,-6.19,24.01,0.32,8.73,1.86
217251,-8.39,-3.57,22.48,0.21,8.73,1.67
217286,-7.92,-2.51,19.23,0.31,8.73,1.49
217321,-5.21,-1.77,15.91,0.46,8.73,1.38
217357,-3.28,-3.06,13.45,0.62,8.73,1.35
217391,-0.72,-1.46,12.36,0.75,8.73,1.30
217426,1.67,1.23,13.07,0.89,8.73,1.27
217461,3.90,0.13,13.11,1.08,8.73,1.29
217497,7.57,-1.20,14.91,1.28,8.73,1.35
217531,10.13,-2.01,17.21,1.48,8.73,1.47
217566,12.26,-4.80,20.25,1.58,8.73,1.67
217601,12.66,-7.33,23.03,1.58,8.73,1.88
217636,12.11,-7.69,25.71,1.58,8.65,2.18
217677,9.51,-8.79,28.09,1.49,8.55,2.57
217711,6.12,-9.64,29.02,1.21,8.56,2.81
217747,4.24,-9.23,30.99,0.84,8.68,2.93
217781,1.11,-12.73,31.68,0.44,8.73,2.83
217816,-2.47,-8.13,32.57,0.18,8.73,2.62
217852,-5.77,-7.42,30.82,0.09,8.73,2.24
217886,-6.69,-5.47,28.02,0.05,8.73,2.01
217921,-6.78,-4.66,25.12,-0.05,8.73,1.73
217956,-6.55,-1.91,22.06,-0.21,8.73,1.33
217991,-4.95,3.43,19.32,-0.15,8.73,0.82
218026,-3.29,3.74,16.06,0.20,8.73,0.52
218061,-0.53,5.00,14.46,0.67,8.73,0.47
218096,2.68,2.62,13.17,1.03,8.73,0.65
218131,5.03,-0.71,14.75,1.18,8.73,1.00
218166,9.54,-1.18,18.41,1.32,8.73,1.27
218201,12.53,-3.43,23.33,1.55,8.73,1.42
218236,13.41,-5.02,25.68,1.74,8.73,1.64
218271,11.72,-8.05,27.65,1.81,8.73,1.97
218306,11.01,-8.01,28.79,1.77,8.73,2.33
218341,8.89,-12.04,30.23,1.47,8.73,2.56
218377,5.11,-12.03,31.97,1.18,8.73,2.65
218411,1.30,-9.46,33.80,0.84,8.73,2.51
218446,-2.56,-6.69,32.58,0.80,8.73,2.29
218481,-3.72,-6.65,26.58,0.77,8.73,2.07
218516,-5.08,-7.24,23.31,0.69,8.73,1.95
218551,-6.86,-6.93,20.76,0.49,8.72,1.88
218586,-6.38,-4.64,18.98,0.34,8.68,1.71
218621,-6.93,-1.98,17.37,0.33,8.73,1.47
218656,-5.60,-1.30,14.46,0.46,8.73,1.40
218691,-0.10,-1.04,11.94,0.61,8.73,1.34
218726,4.03,-1.62,10.53,0.77,8.69,1.32
218761,6.34,-1.11,10.22,0.83,8.58,1.33
218796,6.56,1.30,11.49,1.02,8.54,1.22
218831,8.83,1.23,13.51,1.31,8.54,1.14
218866,11.09,0.41,16.01,1.75,8.51,1.20
218901,11.99,-1.31,18.25,2.15,8.39,1.45
218936,11.85,-5.88,20.56,2.28,8.30,1.90
218971,10.82,-9.47,23.71,2.02,8.37,2.26
219006,8.85,-10.24,26.68,1.64,8.44,2.44
219041,5.88,-9.13,28.83,1.30,8.49,2.51
219077,3.78,-9.87,30.17,0.99,8.52,2.43
219111,0.86,-10.03,29.90,0.71,8.56,2.43
219146,-1.52,-7.95,29.57,0.48,8.61,2.37
219181,-4.36,-8.28,27.37,0.22,8.67,2.20
219216,-5.75,-5.16,25.59,0.03,8.70,1.98
219251,-6.30,-4.21,21.53,-0.05,8.73,1.72
219286,-4.95,-1.85,18.09,-0.09,8.73,1.40
219321,-4.59,1.21,15.65,-0.03,8.73,1.08
219357,-3.32,2.83,13.33,0.17,8.70,0.79
219391,-1.13,3.89,11.16,0.42,8.69,0.48
219426,1.73,5.48,10.47,0.77,8.70,0.20
219461,5.04,5.41,11.09,1.22,8.73,0.13
219496,7.75,4.85,12.94,1.63,8.71,0.33
219531,8.86,1.33,13.60,1.88,8.73,0.70
219566,10.85,-2.11,17.50,1.94,8.73,1.11
219601,11.60,-4.37,20.41,1.95,8.73,1.47
219636,11.78,-7.99,24.05,1.89,8.73,1.76
219671,10.51,-10.19,26.29,1.74,8.69,2.02
219711,7.50,-9.80,28.24,1.55,8.63,2.23
219746,4.10,-11.18,29.76,1.35,8.62,2.37
219781,1.36,-10.32,29.77,1.07,8.66,2.29
219816,-1.29,-8.42,29.25,1.06,8.59,2.11
219851,-4.13,-7.55,26.85,1.07,8.51,1.96
219887,-5.45,-6.01,24.45,1.02,8.40,1.92
219921,-5.42,-7.55,20.36,0.95,8.24,1.91
219956,-6.64,-8.03,17.31,0.86,8.12,1.91
219991,-6.59,-5.83,15.03,0.66,8.09,1.84
220026,-4.90,-4.90,11.93,0.53,8.06,1.71
220061,-2.50,-3.04,8.85,0.48,7.96,1.59
220096,-0.35,-1.40,7.02,0.48,7.86,1.47
220131,2.26,-0.24,7.05,0.51,7.80,1.36
220166,3.73,-0.79,6.89,0.56,7.83,1.23
220201,5.20,0.57,8.14,0.71,7.81,1.07
220237,8.38,0.80,9.61,0.99,7.86,0.92
220271,9.80,-0.08,11.60,1.27,7.81,0.93
220306,11.26,-2.13,13.25,1.41,7.77,1.06
220341,11.43,-3.24,15.31,1.40,7.77,1.22
220376,11.03,-5.17,18.49,1.32,7.78,1.32
220411,10.70,-5.45,21.01,1.24,7.78,1.36
220446,8.55,-5.02,23.35,1.13,7.83,1.33
220481,7.09,-6.04,25.24,1.12,7.83,1.29
220517,4.41,-5.35,26.15,1.10,7.84,1.26
220551,1.13,-5.52,26.49,1.15,7.82,1.22
220586,-0.88,-4.78,25.49,1.21,7.75,1.30
220621,-3.62,-5.69,23.65,1.21,7.67,1.41
220656,-5.58,-5.33,21.76,1.14,7.58,1.53
220691,-6.95,-3.69,19.58,1.19,7.49,1.58
220726,-8.00,-4.00,17.49,1.24,7.43,1.68
220761,-8.15,-4.41,14.90,1.35,7.38,1.83
220796,-9.03,-5.46,12.61,1.34,7.37,2.03
220831,-7.15,-6.68,10.47,1.23,7.46,2.27
