timestamp,accelX,accelY,accelZ,gyroX,gyroY,gyroZ
28307,6.39,-0.66,7.30,0.24,0.41,0.19
28342,6.46,-0.89,7.70,0.28,0.48,0.21
28377,6.06,-1.66,7.31,0.23,0.59,0.13
28412,6.11,-1.07,7.68,0.18,0.74,-0.01
28447,5.87,-1.29,8.18,0.14,0.86,-0.16
28487,5.57,-0.28,8.51,0.14,0.95,-0.18
28522,5.55,-0.20,9.30,0.14,0.97,-0.11
28557,4.94,-0.34,8.77,0.14,1.02,-0.12
28592,4.53,-0.77,8.95,0.15,1.01,-0.01
28627,4.64,-0.48,9.73,0.14,1.06,0.07
28662,4.36,1.11,10.06,0.17,1.24,0.15
28697,3.81,-0.57,9.66,0.19,1.41,0.21
28732,3.37,-2.54,9.85,0.22,1.60,0.32
28767,2.96,-0.83,11.09,0.21,1.81,0.34
28802,2.41,-2.10,10.82,0.17,1.94,0.52
28837,1.50,-1.57,10.58,0.18,2.10,0.67
28872,0.92,-0.80,11.68,0.13,2.24,0.73
28907,0.23,-1.30,11.94,-0.02,2.36,0.96
28942,-0.71,-1.68,11.90,-0.04,2.53,1.00
28977,-1.41,-1.71,11.53,-0.03,2.74,0.97
29012,-2.92,-1.18,14.52,0.08,3.03,0.78
29047,-4.48,-3.85,15.34,0.11,3.43,0.80
29082,-4.70,-2.42,12.85,-0.10,3.68,1.04
29117,-5.45,-3.31,12.02,-0.19,3.81,1.11
29152,-7.58,-0.60,12.69,-0.34,3.96,1.09
29187,-7.46,1.53,10.92,-0.16,4.09,0.92
29222,-7.67,-0.06,8.82,0.02,4.11,0.81
29257,-9.06,-2.46,7.79,0.12,4.14,0.77
29292,-10.59,-0.66,8.19,0.16,4.21,0.77
29327,-10.60,-1.14,7.07,0.14,4.39,0.71
29362,-9.62,0.46,6.00,0.04,4.60,0.64
29397,-9.70,0.26,4.91,0.06,4.80,0.60
29432,-10.64,1.23,3.30,0.07,4.99,0.60
29467,-7.28,1.17,3.10,0.20,5.20,0.71
29502,-6.00,-0.60,0.27,0.41,5.23,1.10
29537,-5.15,-1.87,-1.45,0.42,5.24,1.42
29572,-3.35,-3.57,-1.55,0.37,5.30,1.63
29607,-1.36,-3.55,-0.52,0.23,5.35,1.87
29642,1.38,-4.24,-1.30,0.06,5.35,1.99
29677,4.41,-3.65,-0.96,-0.11,5.36,1.91
29712,7.48,-1.18,-0.19,-0.13,5.31,1.71
29747,8.93,-1.44,0.10,-0.15,5.28,1.54
29782,9.00,-0.41,2.31,-0.16,5.26,1.45
29817,8.79,0.21,2.11,0.03,5.23,1.28
29852,12.53,-0.50,6.43,0.38,5.36,1.12
29887,10.75,3.81,6.17,0.54,5.26,1.17
29922,10.91,-0.63,7.60,0.64,5.36,1.20
29957,10.12,-1.53,10.41,0.81,5.42,1.31
29992,9.51,-2.70,13.00,0.80,5.36,1.43
30026,9.29,-2.22,14.46,0.77,5.17,1.52
30061,7.70,-3.67,15.06,0.75,5.06,1.64
30096,6.28,-4.94,15.23,0.71,5.08,1.71
30131,4.70,-4.10,16.12,0.63,5.14,1.72
30166,3.41,-4.36,17.94,0.55,5.29,1.63
30201,1.78,-3.70,18.90,0.49,5.49,1.43
30236,-0.28,-3.82,18.21,0.54,5.63,1.26
30271,-2.20,-2.15,18.40,0.59,5.72,1.13
30306,-4.73,-3.69,18.01,0.63,5.77,1.06
30341,-6.22,-3.45,17.46,0.59,5.86,1.12
30376,-7.28,-3.40,16.18,0.51,5.97,1.14
30411,-8.15,-2.34,14.47,0.42,6.05,1.15
30446,-8.25,-1.56,12.29,0.47,6.11,1.15
30481,-9.06,-1.42,9.88,0.56,6.14,1.15
30521,-7.92,-1.50,7.57,0.61,6.15,1.20
30556,-7.94,-1.43,5.63,0.49,6.22,1.16
30591,-6.24,-0.17,4.74,0.49,6.30,1.18
30626,-4.62,-0.22,3.59,0.47,6.40,1.17
30661,-3.38,-1.98,2.02,0.49,6.46,1.43
30696,-0.55,-5.43,0.72,0.36,6.46,1.74
30731,3.47,-7.12,1.56,0.08,6.38,1.97
30766,3.60,-6.42,2.67,-0.19,6.28,2.04
30801,9.87,-3.51,2.49,-0.35,6.19,1.83
30836,7.52,-2.18,2.72,-0.36,6.23,1.60
30871,9.31,1.93,6.62,-0.15,6.43,1.44
30906,8.94,0.72,8.31,0.13,6.50,1.32
30941,11.35,-0.28,11.01,0.51,6.62,1.28
30976,9.83,-2.36,13.38,0.64,6.75,1.23
31011,10.68,-2.90,16.26,0.65,6.87,1.24
31046,8.94,-4.85,18.50,0.61,6.97,1.16
31081,6.99,-3.07,21.01,0.60,7.11,1.01
31115,6.42,-2.89,23.11,0.63,7.21,0.98
31150,3.43,-3.43,24.21,0.70,7.36,1.13
31185,1.43,-3.98,25.26,0.69,7.49,1.32
31220,-1.81,-4.31,26.28,0.44,7.61,1.61
31255,-4.13,-4.83,24.91,0.12,7.71,1.77
31290,-5.11,-2.29,23.00,-0.15,7.79,1.70
31325,-6.90,0.03,21.33,-0.24,7.87,1.51
31360,-7.00,1.62,18.93,-0.13,7.94,1.32
31395,-7.66,2.24,16.04,0.24,7.93,1.28
31430,-6.83,-0.09,12.52,0.71,7.83,1.53
31465,-4.95,-4.40,9.29,0.97,7.66,1.97
31500,-4.27,-7.22,7.42,0.93,7.57,2.36
31535,-2.47,-8.15,6.74,0.71,7.60,2.69
31570,-0.26,-8.13,6.76,0.43,7.71,2.74
31605,3.02,-6.27,6.86,0.23,7.84,2.59
31640,7.48,-4.21,9.03,0.16,7.95,2.29
31675,9.14,-3.04,11.27,0.21,7.99,2.03
31710,10.42,-3.66,14.11,0.30,8.05,1.88
31745,11.45,-2.76,16.76,0.37,8.08,1.80
31780,11.69,-3.48,19.55,0.43,8.10,1.79
31816,11.28,-4.41,22.50,0.49,8.11,1.84
31850,9.05,-4.77,24.64,0.53,8.10,1.97
31885,7.07,-6.61,26.60,0.54,8.05,2.18
31920,4.20,-5.99,27.50,0.41,8.01,2.40
31955,1.35,-6.62,27.78,0.12,8.06,2.52
31990,-1.13,-5.62,29.45,-0.14,8.19,2.39
32025,-3.34,-3.30,28.55,-0.22,8.39,2.08
32060,-4.67,-2.05,26.24,-0.10,8.52,1.75
32095,-6.29,-1.90,23.64,0.04,8.57,1.51
32130,-6.69,-0.76,20.83,0.15,8.61,1.36
32165,-7.25,-0.44,17.82,0.27,8.61,1.19
32200,-5.81,0.70,14.88,0.35,8.64,1.01
32235,-4.51,1.38,12.66,0.45,8.66,0.74
32270,-1.85,3.26,11.47,0.62,8.71,0.42
32305,1.10,4.11,11.73,0.91,8.73,0.31
32340,4.65,2.03,10.92,1.20,8.70,0.43
32375,6.90,-0.50,11.48,1.35,8.71,0.70
32410,9.51,-3.51,13.83,1.23,8.71,1.04
32445,10.34,-5.44,17.41,1.08,8.70,1.20
32480,10.81,-6.16,20.44,0.94,8.70,1.20
32515,10.36,-5.51,23.03,0.85,8.73,1.15
32555,10.90,-4.84,25.84,0.88,8.73,1.05
32590,7.87,-4.70,28.50,0.97,8.73,1.00
32625,5.35,-4.74,30.01,1.09,8.73,1.09
32660,2.36,-5.80,30.89,1.19,8.73,1.25
32695,-1.00,-5.72,30.57,1.32,8.73,1.37
32730,-3.50,-4.82,29.09,1.34,8.73,1.47
32765,-5.19,-4.71,26.63,1.35,8.73,1.59
32800,-6.62,-4.70,23.23,1.34,8.66,1.69
32835,-6.92,-4.71,19.37,1.34,8.52,1.78
32870,-5.89,-4.87,15.81,1.35,8.36,1.91
32905,-6.49,-6.19,13.77,1.28,8.26,2.05
32940,-6.01,-6.36,11.83,1.18,8.26,2.18
32975,-3.31,-5.91,10.38,1.01,8.33,2.19
33010,-0.04,-4.19,10.39,0.86,8.42,2.12
33045,4.45,-2.33,11.26,0.79,8.49,2.00
33080,6.93,-1.02,11.22,0.79,8.52,1.89
33115,9.99,-1.96,13.15,0.81,8.61,1.86
33150,11.34,-2.81,16.14,0.85,8.68,1.83
33185,11.75,-3.23,19.44,0.88,8.69,1.85
33220,12.18,-4.10,22.27,0.96,8.66,1.90
33255,11.11,-5.80,24.80,0.97,8.62,1.98
33290,9.40,-6.57,27.04,0.88,8.60,2.05
33325,6.81,-7.16,29.12,0.79,8.54,2.10
33360,4.35,-7.58,29.89,0.65,8.56,2.07
33395,1.64,-6.81,30.11,0.48,8.60,2.06
33430,-1.20,-6.78,29.86,0.31,8.64,2.03
33465,-3.85,-5.27,28.23,0.20,8.71,1.90
33500,-5.48,-4.05,25.56,0.11,8.72,1.74
33535,-5.90,-1.50,22.77,0.05,8.73,1.55
33570,-7.56,-1.08,20.74,0.10,8.73,1.35
33605,-6.40,-0.25,17.86,0.21,8.73,1.21
33640,-5.99,0.76,16.26,0.38,8.73,1.14
33675,-3.28,-0.21,13.79,0.55,8.73,1.15
33710,-0.45,-0.41,12.40,0.70,8.73,1.23
33745,3.44,-2.37,12.31,0.76,8.73,1.36
33780,5.76,-2.72,12.93,0.78,8.73,1.43
33815,8.05,-2.95,14.15,0.78,8.73,1.47
33849,10.21,-2.99,17.64,0.79,8.73,1.47
33884,11.44,-2.25,21.06,0.79,8.73,1.46
33919,11.70,-4.71,24.45,0.83,8.73,1.43
33954,10.93,-6.02,27.38,0.81,8.73,1.43
33989,9.47,-4.59,30.15,0.81,8.73,1.36
34024,7.07,-4.43,31.37,0.87,8.73,1.36
34059,3.68,-4.46,31.60,0.91,8.73,1.42
34094,0.37,-5.20,31.41,0.94,8.73,1.53
34129,-2.44,-5.29,30.19,0.89,8.73,1.62
34164,-4.86,-4.05,28.25,0.83,8.73,1.64
34199,-7.11,-4.86,26.47,0.83,8.73,1.65
34233,-7.56,-3.55,23.54,0.86,8.73,1.66
34268,-7.61,-3.10,20.35,0.90,8.73,1.70
34303,-6.45,-2.51,17.45,1.01,8.73,1.81
34338,-3.57,-3.00,14.60,0.99,8.73,1.94
34373,-0.94,-1.31,12.74,0.92,8.73,1.92
34408,1.71,-2.45,11.86,0.87,8.73,1.95
34443,4.99,-2.95,12.51,0.87,8.73,1.92
34478,6.98,-2.51,13.07,0.90,8.73,1.83
34513,9.38,-2.97,14.60,0.97,8.73,1.83
34548,10.56,-3.91,17.35,1.04,8.73,1.85
34588,12.21,-3.97,20.99,1.15,8.73,1.92
34623,12.06,-5.05,23.89,1.20,8.73,2.08
34658,10.64,-6.66,26.84,1.15,8.73,2.22
34693,8.72,-6.59,28.65,0.98,8.70,2.29
34728,6.73,-7.29,29.64,0.78,8.65,2.33
34763,3.39,-8.65,30.36,0.61,8.69,2.27
34798,-0.40,-7.92,31.21,0.47,8.70,2.12
34834,-3.28,-5.83,30.60,0.39,8.73,1.98
34868,-5.51,-5.01,29.17,0.34,8.73,1.84
34903,-6.26,-3.47,25.99,0.35,8.73,1.69
34938,-7.90,-3.16,23.19,0.33,8.73,1.53
34973,-7.68,-1.23,20.96,0.34,8.73,1.35
35008,-5.09,0.97,17.75,0.46,8.73,1.20
35043,-3.94,1.11,14.80,0.67,8.73,1.06
35078,-1.02,0.27,13.51,0.86,8.73,0.97
35113,0.78,0.31,12.98,1.10,8.73,1.02
35148,6.42,0.36,13.55,1.33,8.73,1.07
35183,9.67,0.59,15.58,1.70,8.73,1.12
35218,11.70,-1.46,18.01,1.94,8.73,1.34
35253,12.32,-3.82,21.15,2.03,8.73,1.67
35288,12.17,-5.76,23.76,1.97,8.73,2.02
35324,11.68,-9.81,26.53,1.77,8.73,2.33
35358,10.22,-8.64,30.31,1.47,8.73,2.52
35393,7.30,-9.97,33.23,1.24,8.73,2.69
35428,3.83,-11.46,33.97,0.88,8.73,2.80
35463,0.56,-11.53,34.10,0.62,8.73,2.79
35498,-2.97,-10.36,34.19,0.33,8.73,2.67
35533,-4.52,-5.82,32.80,0.14,8.73,2.50
35568,-5.99,-5.27,29.27,0.06,8.73,2.27
35603,-6.15,-4.75,24.95,0.10,8.73,2.00
35638,-6.14,-5.05,21.17,0.14,8.73,1.86
35673,-5.43,-2.35,18.28,0.40,8.73,1.88
35708,-0.83,-3.95,16.69,0.41,8.73,1.94
35743,2.99,-5.37,16.15,0.39,8.73,1.97
35778,6.01,-6.06,16.31,0.32,8.73,1.89
35813,9.06,-5.69,17.48,0.24,8.73,1.74
35848,11.85,-5.96,19.43,0.26,8.73,1.55
35883,12.73,-4.79,21.95,0.32,8.73,1.38
35918,13.31,-3.87,23.75,0.40,8.73,1.21
35953,13.48,-4.27,25.44,0.58,8.73,1.14
35988,10.81,-5.68,28.23,0.77,8.73,1.17
36023,8.37,-6.11,29.90,0.92,8.73,1.27
36058,5.39,-7.02,30.67,0.97,8.73,1.41
36093,2.42,-7.21,30.39,0.97,8.73,1.56
36128,-0.20,-6.64,28.95,0.88,8.73,1.71
36163,-3.17,-5.51,28.26,0.80,8.73,1.70
36198,-5.78,-3.78,27.43,0.82,8.73,1.67
36233,-6.37,-4.56,23.98,0.86,8.73,1.67
36268,-6.77,-4.35,20.98,0.85,8.73,1.66
36303,-7.43,-3.82,18.40,0.85,8.73,1.63
36339,-6.03,-3.50,15.97,0.83,8.73,1.59
36373,-4.56,-2.63,13.79,0.85,8.73,1.51
36408,-1.49,-1.46,12.35,0.91,8.73,1.40
36443,0.58,-0.14,11.94,1.03,8.73,1.32
36478,6.76,-0.39,13.44,1.23,8.73,1.24
36513,10.27,-0.92,15.19,1.41,8.73,1.28
36548,12.12,-2.56,16.59,1.49,8.73,1.42
36583,12.02,-3.80,18.44,1.45,8.68,1.61
36623,11.41,-6.81,21.33,1.34,8.72,1.78
36658,10.51,-6.28,25.15,1.21,8.73,1.86
36693,9.50,-7.16,27.65,1.10,8.73,1.90
36729,7.30,-7.01,29.94,1.05,8.73,1.92
36763,4.36,-6.50,31.16,0.97,8.73,1.91
36798,1.56,-6.06,31.40,0.87,8.73,1.93
36833,-0.97,-6.06,31.63,0.86,8.73,1.86
36868,-3.65,-5.46,29.80,0.93,8.73,1.76
36903,-5.28,-5.37,27.64,1.06,8.73,1.72
36938,-5.67,-4.73,24.63,1.14,8.73,1.77
36973,-6.11,-5.90,21.51,1.08,8.73,1.79
37008,-6.91,-4.15,18.74,0.95,8.73,1.74
37043,-4.66,-2.93,15.76,0.90,8.73,1.69
37078,-1.58,-2.56,13.73,0.84,8.73,1.53
37113,1.91,-2.61,12.76,0.86,8.73,1.48
37148,6.13,-2.36,13.45,0.89,8.73,1.53
37183,8.15,-2.18,14.31,0.90,8.73,1.56
37218,9.79,-3.14,14.99,0.92,8.73,1.59
37253,10.65,-5.01,16.96,0.94,8.73,1.65
37288,10.93,-4.64,20.69,0.95,8.73,1.70
37323,10.81,-4.81,23.63,0.98,8.73,1.77
37358,11.68,-5.50,27.02,1.03,8.73,1.89
37393,10.67,-6.00,29.95,0.98,8.73,2.01
37428,7.60,-7.21,31.97,0.87,8.73,2.13
37463,4.25,-8.15,32.36,0.70,8.73,2.17
37498,-0.11,-9.44,32.84,0.47,8.73,2.24
37533,-3.39,-5.89,32.87,0.25,8.73,2.19
37568,-5.73,-4.95,30.93,0.10,8.73,2.02
37603,-5.99,-3.30,27.41,0.03,8.73,1.78
37638,-7.25,-2.05,24.16,0.04,8.73,1.54
37673,-7.02,0.77,21.47,0.20,8.73,1.37
37708,-4.38,1.09,18.57,0.47,8.73,1.34
37743,-0.80,-0.39,15.67,0.67,8.73,1.36
37778,2.11,-1.67,13.73,0.78,8.73,1.42
37813,3.62,-2.19,13.01,0.84,8.73,1.46
37848,6.22,-1.30,13.00,0.91,8.73,1.47
37883,9.21,-1.75,15.33,1.06,8.73,1.49
37918,11.43,-3.18,19.13,1.16,8.73,1.53
37953,12.36,-4.25,21.52,1.31,8.73,1.64
37988,12.33,-4.96,24.88,1.28,8.73,1.75
38023,11.91,-6.90,27.30,1.28,8.73,1.89
38058,10.60,-7.29,29.14,1.17,8.73,1.95
38093,8.52,-8.47,30.80,1.05,8.73,2.05
38128,4.97,-8.11,32.35,0.93,8.73,2.09
38163,0.07,-9.29,32.09,0.89,8.73,2.15
38198,-3.83,-7.09,31.24,0.77,8.73,2.12
38233,-6.04,-6.05,28.58,0.72,8.73,2.05
38268,-7.16,-4.72,25.76,0.71,8.73,1.99
38303,-6.13,-4.25,21.50,0.76,8.73,1.98
38338,-5.40,-4.25,18.29,0.79,8.73,1.96
38373,-4.36,-3.84,14.82,0.75,8.73,1.97
38408,-4.23,-3.39,12.97,0.67,8.69,1.91
38443,-2.26,-2.52,11.82,0.59,8.69,1.82
38478,1.34,-1.53,11.96,0.59,8.72,1.72
38513,2.61,-0.25,12.23,0.66,8.73,1.63
38548,6.68,-0.77,13.55,0.74,8.73,1.56
38583,9.85,-2.19,15.03,0.89,8.73,1.53
38618,11.78,-1.80,18.59,1.04,8.73,1.51
38658,12.57,-3.92,22.00,1.09,8.73,1.53
38693,12.46,-5.13,24.37,1.16,8.73,1.63
38728,8.77,-6.11,26.91,1.12,8.73,1.64
38763,8.21,-7.06,29.06,1.03,8.73,1.45
38798,5.68,-6.24,30.66,1.04,8.73,1.33
38834,2.94,-6.43,31.30,1.12,8.73,1.25
38868,0.05,-5.83,30.57,1.27,8.73,1.22
38903,-3.05,-5.28,28.73,1.32,8.73,1.31
38938,-5.21,-4.54,26.30,1.26,8.73,1.45
38973,-6.67,-4.69,22.99,1.17,8.67,1.53
39008,-7.30,-4.77,20.65,1.05,8.67,1.57
39042,-7.11,-1.72,18.63,0.93,8.70,1.53
39077,-5.70,-0.78,15.92,0.90,8.73,1.49
39112,-5.51,0.56,14.06,0.91,8.73,1.40
39147,-1.65,1.11,12.52,0.94,8.73,1.32
39182,1.53,0.54,12.20,1.01,8.73,1.32
39217,4.95,-0.34,11.70,1.08,8.73,1.38
39252,7.56,-1.98,12.25,1.10,8.73,1.51
39287,10.11,-3.43,14.63,1.11,8.73,1.61
39323,11.82,-4.19,18.32,1.12,8.73,1.65
39357,12.49,-4.61,21.33,1.12,8.73,1.73
39392,11.98,-5.71,24.18,1.12,8.73,1.80
39427,10.64,-6.05,27.03,1.06,8.73,1.85
39462,8.42,-5.85,29.10,1.01,8.73,1.82
39497,5.77,-5.65,30.27,0.95,8.73,1.75
39532,2.80,-5.41,30.56,0.95,8.73,1.70
39567,-0.65,-5.17,30.26,0.96,8.70,1.68
39602,-3.52,-4.87,28.42,0.89,8.66,1.70
39637,-5.58,-4.39,26.66,0.82,8.61,1.70
39672,-7.40,-3.90,24.53,0.77,8.61,1.71
39707,-7.62,-3.34,21.40,0.73,8.63,1.69
39742,-7.53,-3.24,18.40,0.71,8.66,1.63
39777,-7.25,-2.53,15.98,0.74,8.72,1.66
39812,-4.02,-3.11,13.46,0.72,8.73,1.66
39847,-1.37,-2.33,12.14,0.71,8.73,1.60
39882,1.06,-2.38,11.45,0.68,8.73,1.61
39917,4.90,-2.70,11.67,0.68,8.73,1.57
39952,7.48,-2.95,12.55,0.65,8.73,1.56
39987,9.72,-3.00,14.70,0.61,8.73,1.54
40022,11.65,-3.20,18.15,0.56,8.73,1.50
40057,12.66,-3.69,20.78,0.55,8.73,1.42
40092,12.23,-3.70,23.88,0.51,8.73,1.31
40127,10.29,-3.49,26.21,0.59,8.70,1.23
40162,8.66,-3.05,27.76,0.72,8.63,1.22
40197,6.45,-4.49,29.33,0.84,8.60,1.30
40232,4.02,-4.36,30.85,0.94,8.68,1.35
40267,0.95,-3.78,31.20,1.00,8.71,1.37
40302,-1.73,-4.30,30.16,1.10,8.73,1.40
40337,-4.75,-3.63,29.18,1.29,8.73,1.42
40372,-6.99,-4.49,26.59,1.47,8.73,1.53
40407,-7.68,-4.35,23.90,1.52,8.73,1.73
40442,-8.21,-5.23,20.84,1.52,8.73,1.91
40477,-6.98,-5.19,17.87,1.41,8.73,2.06
40512,-3.82,-4.15,14.95,1.28,8.73,2.16
40547,-1.66,-5.41,12.78,1.14,8.73,2.20
40582,0.65,-5.86,12.14,0.97,8.73,2.15
40617,4.48,-3.48,12.27,0.86,8.73,2.14
40652,7.95,-3.84,13.35,0.77,8.73,2.12
40692,9.91,-4.90,16.76,0.72,8.73,2.05
40727,11.74,-5.16,20.40,0.70,8.73,1.99
40762,12.66,-4.68,23.46,0.69,8.73,1.92
40797,11.10,-4.55,26.19,0.73,8.73,1.92
40832,9.22,-6.24,27.52,0.78,8.73,2.01
40867,7.25,-6.56,28.85,0.75,8.73,2.02
40902,4.92,-7.02,30.16,0.68,8.72,2.05
40937,2.32,-7.23,31.31,0.56,8.73,2.00
40972,-0.82,-6.96,30.25,0.32,8.73,1.94
41007,-3.33,-4.89,29.74,0.19,8.73,1.79
41042,-5.53,-3.47,28.03,0.14,8.73,1.65
41077,-6.31,-2.44,24.91,0.05,8.73,1.47
41112,-6.11,0.28,21.95,-0.04,8.73,1.24
41147,-5.18,2.12,18.83,0.09,8.73,1.02
41182,-7.18,2.77,16.83,0.36,8.73,0.92
41217,-4.62,0.63,14.03,0.62,8.73,0.98
41252,-1.26,0.44,13.00,0.82,8.73,1.10
41287,1.72,0.24,12.98,0.95,8.73,1.21
41321,5.61,-1.20,12.46,1.04,8.73,1.25
41356,8.77,-1.70,13.88,1.14,8.73,1.32
41391,10.39,-3.33,15.49,1.17,8.73,1.42
41425,11.78,-3.85,17.66,1.16,8.73,1.53
41460,12.70,-5.21,21.01,1.15,8.73,1.60
41495,12.30,-6.27,24.77,1.17,8.73,1.69
41529,10.43,-6.72,27.32,1.11,8.73,1.73
41564,7.99,-8.14,29.52,1.08,8.73,1.76
41599,4.27,-7.85,30.77,1.02,8.73,1.84
41634,1.37,-7.86,31.24,0.98,8.73,1.89
41669,-1.38,-5.88,30.98,0.99,8.73,1.89
41704,-3.79,-5.58,29.11,0.99,8.73,1.88
41739,-5.89,-5.39,27.26,1.07,8.73,1.91
41774,-7.08,-5.51,24.30,1.18,8.73,1.97
41809,-7.12,-6.80,20.61,1.22,8.73,2.10
41844,-6.83,-5.51,17.70,1.16,8.73,2.24
41879,-4.97,-4.54,15.07,1.04,8.73,2.34
41914,-2.38,-4.68,12.64,0.88,8.73,2.28
41949,1.06,-4.08,11.82,0.75,8.73,2.12
41984,3.64,-2.23,12.30,0.67,8.73,1.90
42019,6.64,-1.06,12.62,0.72,8.73,1.66
42054,9.25,-1.64,13.48,0.81,8.73,1.58
42089,10.18,-2.85,15.24,0.81,8.73,1.58
42124,11.16,-4.81,18.44,0.77,8.73,1.57
42159,12.15,-5.45,21.94,0.73,8.73,1.54
42194,11.19,-5.09,25.41,0.74,8.73,1.49
42229,10.14,-4.71,28.18,0.76,8.73,1.42
42264,7.15,-4.53,30.46,0.89,8.73,1.42
42299,4.12,-4.87,31.98,0.97,8.73,1.45
42334,0.99,-5.09,31.59,1.01,8.73,1.47
42369,-1.62,-5.12,30.33,1.01,8.73,1.49
42404,-4.19,-5.78,28.13,1.00,8.73,1.56
42439,-6.40,-2.57,26.93,1.04,8.73,1.59
42473,-6.64,-3.69,23.50,1.05,8.73,1.65
42508,-7.18,-3.44,20.14,1.03,8.73,1.67
42543,-7.07,-3.85,17.23,1.05,8.73,1.74
42578,-5.25,-4.54,14.85,1.03,8.73,1.82
42613,-1.54,-5.91,12.66,0.97,8.73,1.87
42648,0.32,-5.67,11.76,0.86,8.73,1.94
42683,3.47,-5.04,11.92,0.77,8.73,1.96
42723,7.04,-3.15,12.71,0.66,8.73,1.94
42758,9.58,-3.20,14.68,0.60,8.73,1.87
42793,10.64,-4.64,17.24,0.60,8.73,1.80
42828,11.63,-4.13,20.96,0.57,8.73,1.73
42864,11.29,-4.45,24.42,0.57,8.73,1.65
42898,10.24,-4.56,27.84,0.62,8.73,1.58
42933,8.94,-3.35,30.62,0.70,8.73,1.53
42968,5.85,-5.67,31.59,0.77,8.73,1.53
43003,2.85,-5.69,32.16,0.80,8.73,1.51
43038,0.05,-5.57,32.49,0.84,8.73,1.46
43073,-2.50,-3.88,31.74,0.93,8.73,1.41
43108,-4.28,-2.65,29.10,1.03,8.73,1.43
43143,-5.13,-3.14,25.04,1.08,8.73,1.49
43178,-5.73,-2.84,21.65,1.03,8.73,1.52
43213,-6.36,-1.88,19.23,0.91,8.73,1.49
43248,-5.24,-0.61,17.04,0.85,8.73,1.40
43283,-4.25,0.60,15.13,0.86,8.73,1.29
43319,-1.09,3.30,13.52,0.95,8.73,1.16
43353,1.01,3.29,12.98,1.07,8.73,1.22
43388,4.22,1.75,12.44,1.22,8.73,1.27
43423,7.17,0.09,12.78,1.27,8.73,1.39
43458,10.14,-2.72,15.52,1.33,8.73,1.52
43492,12.09,-3.37,18.71,1.31,8.73,1.63
43527,12.97,-5.59,21.43,1.22,8.73,1.71
43562,12.56,-6.58,24.47,1.11,8.73,1.75
43597,10.89,-5.58,27.44,1.01,8.73,1.76
43632,8.05,-4.99,29.15,0.95,8.73,1.70
43667,5.71,-5.10,30.68,0.93,8.73,1.70
43702,2.77,-5.21,31.57,0.96,8.73,1.70
43737,-0.20,-3.98,31.75,1.02,8.73,1.64
43772,-3.16,-4.41,29.11,1.13,8.73,1.57
43807,-5.15,-3.50,27.29,1.24,8.73,1.59
43842,-6.64,-5.50,23.98,1.31,8.73,1.68
43878,-6.76,-5.30,21.03,1.30,8.73,1.78
43912,-6.82,-3.72,18.86,1.22,8.73,1.87
43947,-6.45,-2.38,16.81,1.10,8.73,1.93
43982,-4.59,-0.47,14.97,1.01,8.73,1.91
44017,-2.26,-0.50,13.24,0.97,8.73,1.85
44052,1.80,-1.74,13.95,0.94,8.73,1.79
44087,4.84,-2.88,12.99,0.96,8.73,1.75
44122,7.57,-3.27,13.55,0.93,8.73,1.76
44158,10.33,-3.27,17.50,0.94,8.73,1.74
44192,11.43,-3.94,19.93,1.01,8.73,1.73
44227,12.63,-4.89,23.28,1.01,8.73,1.75
44262,11.89,-6.14,25.88,0.98,8.73,1.78
44297,9.81,-7.17,28.24,0.88,8.73,1.73
44332,7.53,-7.41,29.87,0.82,8.73,1.62
44367,4.43,-5.39,31.45,0.79,8.73,1.56
44402,2.35,-4.99,31.73,0.81,8.73,1.58
44437,-0.49,-3.58,30.92,0.83,8.73,1.58
44472,-3.05,-4.75,29.16,0.80,8.73,1.62
44507,-5.78,-3.69,27.54,0.77,8.73,1.61
44542,-6.93,-3.37,25.03,0.71,8.73,1.57
44577,-7.28,-2.23,22.49,0.65,8.73,1.47
44612,-6.92,0.75,20.25,0.64,8.73,1.35
44647,-5.19,2.47,18.03,0.74,8.73,1.25
44682,-1.89,0.80,15.23,0.89,8.73,1.14
44717,1.82,1.16,14.42,1.01,8.73,1.13
44757,5.96,-0.39,13.91,1.23,8.73,1.13
44792,8.68,-1.96,14.97,1.33,8.73,1.27
44828,10.42,-3.40,16.87,1.35,8.73,1.41
44862,11.54,-4.82,19.70,1.24,8.73,1.56
44897,11.89,-5.44,22.72,1.10,8.73,1.62
44931,11.54,-5.38,25.74,0.99,8.73,1.64
44966,9.25,-5.50,28.15,0.94,8.73,1.63
45001,6.72,-5.49,29.75,0.90,8.73,1.62
45036,4.95,-5.72,31.72,0.88,8.73,1.75
45071,2.45,-6.73,32.14,0.84,8.73,1.87
45106,-0.06,-6.11,32.26,0.80,8.73,1.93
45141,-2.93,-6.26,31.15,0.75,8.73,1.90
45176,-4.61,-4.72,29.22,0.77,8.73,1.86
45211,-6.17,-5.30,26.76,0.79,8.73,1.84
45246,-6.70,-5.44,23.71,0.84,8.73,1.84
45281,-6.13,-4.99,20.35,0.88,8.73,1.87
45316,-5.55,-5.24,17.15,0.84,8.73,1.94
45351,-2.77,-2.68,15.22,0.81,8.73,1.93
45386,0.63,-2.89,13.17,0.81,8.73,1.87
45421,5.17,-3.09,14.03,0.79,8.73,1.80
45456,7.56,-3.07,14.54,0.83,8.73,1.66
45491,10.52,-1.75,16.39,0.95,8.73,1.57
45526,11.76,-2.31,19.09,1.07,8.73,1.54
45561,11.77,-2.90,21.20,1.10,8.73,1.54
45596,11.78,-4.13,23.77,1.09,8.73,1.58
45631,10.85,-5.87,26.44,1.03,8.73,1.59
45666,9.50,-5.10,29.53,0.96,8.73,1.54
45701,7.99,-3.81,32.39,0.96,8.73,1.55
45736,4.43,-4.75,33.09,1.02,8.73,1.56
45771,0.51,-6.09,32.59,1.06,8.73,1.58
45806,-2.62,-5.93,32.23,1.07,8.73,1.61
45841,-4.14,-5.16,29.10,1.08,8.73,1.64
45876,-5.54,-4.48,26.46,1.07,8.73,1.70
45911,-6.17,-4.05,23.28,1.02,8.73,1.77
45946,-6.89,-4.31,20.52,0.91,8.73,1.78
45981,-6.00,-1.37,18.42,0.86,8.73,1.79
46016,-4.53,-0.16,16.34,0.88,8.73,1.80
46051,-1.41,-2.60,13.88,0.90,8.73,1.85
46086,2.35,-5.46,13.65,0.82,8.73,1.89
46121,5.99,-5.34,13.58,0.72,8.73,1.87
46156,9.05,-3.39,14.39,0.63,8.73,1.83
46191,10.69,-4.30,17.05,0.64,8.73,1.74
46226,11.81,-2.86,19.55,0.67,8.73,1.67
46261,13.01,-4.28,22.54,0.70,8.73,1.62
46296,12.24,-4.81,26.50,0.74,8.73,1.58
46331,10.81,-4.89,29.64,0.76,8.73,1.46
46366,6.76,-4.91,31.91,0.84,8.73,1.34
46401,4.38,-5.67,32.96,0.92,8.73,1.27
46436,1.14,-4.62,32.79,1.07,8.73,1.22
46471,-1.18,-3.91,32.64,1.20,8.73,1.24
46506,-3.56,-4.28,30.63,1.32,8.73,1.35
46541,-5.86,-2.73,28.23,1.32,8.73,1.49
46576,-7.25,-3.77,24.75,1.26,8.73,1.60
46611,-7.23,-3.04,21.53,1.17,8.73,1.66
46646,-6.29,-2.11,18.44,1.12,8.73,1.67
46681,-2.77,-2.82,14.91,1.09,8.73,1.66
46716,0.44,-3.14,12.84,1.03,8.73,1.55
46751,2.60,-0.05,12.38,1.03,8.73,1.51
46790,5.27,-0.13,12.87,1.18,8.73,1.50
46825,6.79,-0.95,13.84,1.26,8.73,1.57
46860,8.80,-3.41,16.24,1.33,8.73,1.66
46895,10.69,-4.18,19.61,1.27,8.73,1.78
46930,11.58,-4.13,22.63,1.20,8.73,1.88
46965,11.50,-5.64,25.84,1.16,8.73,1.95
47000,9.70,-7.38,28.79,1.12,8.73,2.01
47035,7.70,-9.18,30.88,0.99,8.73,2.00
47070,4.77,-6.63,32.82,0.88,8.73,1.86
47105,2.09,-5.35,32.61,0.89,8.73,1.74
47140,-0.52,-4.44,31.42,0.93,8.73,1.69
47175,-3.73,-5.17,30.19,0.96,8.73,1.69
47210,-5.46,-4.76,27.41,0.96,8.73,1.70
47245,-6.35,-4.71,24.45,0.89,8.73,1.71
47280,-7.60,-3.11,21.83,0.81,8.73,1.68
47315,-7.86,-1.49,19.31,0.83,8.73,1.64
47350,-4.66,-3.34,16.03,0.90,8.73,1.70
47385,-0.90,-5.34,13.13,0.88,8.73,1.74
47420,1.91,-3.04,12.45,0.81,8.73,1.75
47455,4.75,-1.55,13.07,0.77,8.73,1.74
47490,6.73,-2.12,14.14,0.71,8.73,1.74
47525,9.42,-3.42,16.29,0.67,8.73,1.71
47560,10.75,-4.21,18.02,0.63,8.73,1.66
47595,11.67,-4.08,20.96,0.57,8.73,1.61
47630,12.04,-4.93,24.12,0.56,8.73,1.54
47665,11.01,-4.09,28.67,0.65,8.73,1.45
47700,9.01,-5.65,30.93,0.75,8.73,1.42
47735,6.73,-5.28,32.70,0.75,8.73,1.45
47770,3.65,-5.14,33.02,0.81,8.73,1.47
47805,0.62,-5.23,31.96,0.85,8.73,1.53
47840,-2.27,-4.39,30.72,0.86,8.73,1.55
47875,-4.45,-3.73,28.34,0.88,8.73,1.56
47910,-6.16,-3.31,25.30,0.89,8.73,1.57
47945,-6.60,-2.41,22.16,0.83,8.73,1.58
47980,-6.86,-0.41,20.01,0.80,8.73,1.54
48015,-5.52,1.64,17.60,0.84,8.73,1.53
48050,-5.04,0.52,15.19,0.95,8.73,1.56
48085,-1.74,-1.56,13.47,1.01,8.73,1.58
48120,2.57,-3.33,12.86,1.05,8.73,1.61
48155,5.00,-2.44,13.02,1.11,8.73,1.61
48190,7.44,-2.57,14.62,1.19,8.73,1.61
48225,10.29,-2.82,17.39,1.31,8.73,1.65
48260,11.89,-2.24,20.16,1.34,8.73,1.75
48295,12.39,-4.63,22.98,1.31,8.73,1.85
48330,11.44,-7.23,25.74,1.23,8.73,1.97
48365,10.48,-7.13,28.37,1.06,8.73,2.00
48400,8.08,-6.39,31.21,0.97,8.73,1.96
48435,5.01,-5.62,32.13,0.90,8.73,1.91
48470,2.19,-6.05,31.36,0.86,8.73,1.81
48505,-0.53,-5.31,30.30,0.87,8.73,1.75
48540,-4.04,-5.70,29.94,0.86,8.73,1.71
48575,-5.32,-5.39,27.26,0.83,8.73,1.70
48610,-5.99,-5.07,24.16,0.74,8.73,1.69
48645,-7.19,-3.61,21.44,0.69,8.73,1.62
48680,-7.05,-3.60,18.75,0.68,8.73,1.58
48715,-3.99,-3.61,15.89,0.71,8.73,1.59
48750,-1.05,-2.88,13.86,0.71,8.73,1.55
48785,1.93,-0.83,13.34,0.77,8.73,1.56
48825,4.87,-2.62,12.48,0.84,8.73,1.54
48860,8.23,-2.76,13.91,0.88,8.73,1.52
48895,10.81,-3.43,16.17,0.92,8.73,1.52
48930,12.09,-3.78,18.84,0.93,8.73,1.54
48965,12.99,-3.97,21.62,0.88,8.73,1.53
49000,12.58,-4.01,24.61,0.88,8.73,1.51
49035,10.92,-4.84,27.29,0.89,8.73,1.46
49070,8.61,-5.43,28.74,0.91,8.73,1.37
49105,5.97,-6.47,29.71,0.96,8.73,1.31
49140,3.49,-7.24,30.23,1.04,8.73,1.32
49175,0.59,-6.24,30.44,1.13,8.73,1.35
49210,-2.31,-6.71,29.26,1.17,8.73,1.46
49245,-5.59,-5.67,28.64,1.14,8.73,1.54
49280,-6.65,-3.98,25.88,1.15,8.73,1.59
49315,-6.96,-4.36,22.52,1.12,8.73,1.63
49350,-7.66,-3.05,20.04,1.06,8.73,1.62
49385,-7.23,-2.92,17.53,1.04,8.73,1.62
49420,-4.46,-3.52,14.71,1.02,8.73,1.62
49455,-1.51,-3.97,12.53,1.01,8.73,1.58
49490,2.04,-3.25,12.04,1.02,8.73,1.54
49525,5.69,-3.35,12.49,1.02,8.73,1.57
49560,8.12,-2.17,13.43,1.03,8.73,1.62
49595,11.04,-2.16,16.17,1.07,8.73,1.68
49630,11.92,-3.17,18.99,1.06,8.73,1.73
49665,12.26,-3.24,21.72,1.10,8.73,1.78
49700,12.06,-4.53,23.89,1.17,8.73,1.94
49735,10.18,-6.21,26.60,1.11,8.73,2.06
49770,7.79,-6.95,28.62,1.01,8.73,2.17
49805,5.22,-7.31,30.82,0.90,8.73,2.28
49841,2.43,-6.53,32.37,0.75,8.73,2.25
49875,-0.22,-6.56,31.47,0.67,8.73,2.18
49910,-3.23,-5.09,30.90,0.67,8.73,2.06
49945,-5.28,-4.97,28.71,0.73,8.73,1.96
49980,-5.80,-4.18,25.20,0.80,8.73,1.90
50015,-7.03,-4.54,22.55,0.91,8.73,1.92
50050,-7.24,-3.92,20.05,0.97,8.73,1.98
50085,-5.90,-6.12,17.00,1.02,8.73,2.12
50120,-4.07,-8.88,14.12,0.94,8.73,2.23
50155,-0.51,-7.00,13.22,0.78,8.73,2.24
50190,3.77,-4.89,13.45,0.61,8.73,2.21
50225,6.59,-3.11,13.41,0.53,8.73,2.04
50260,9.74,-2.01,14.21,0.58,8.73,1.84
50295,11.76,-1.87,16.55,0.73,8.73,1.71
50330,11.99,-2.19,19.24,0.87,8.73,1.67
50365,12.61,-4.09,21.37,0.94,8.73,1.69
50400,12.39,-5.62,23.54,0.93,8.73,1.77
50435,10.37,-5.43,27.49,0.86,8.73,1.75
50470,7.98,-5.69,29.34,0.81,8.73,1.63
50505,5.26,-3.72,31.62,0.84,8.73,1.55
50540,2.55,-2.69,31.42,0.89,8.73,1.51
50575,-0.48,-4.01,30.20,0.99,8.73,1.46
50610,-3.41,-2.77,29.26,1.11,8.73,1.44
50645,-5.83,-3.98,27.09,1.18,8.73,1.50
50680,-6.53,-3.55,23.94,1.11,8.73,1.54
50715,-7.75,-3.96,21.08,1.00,8.73,1.56
50750,-7.22,-0.30,18.53,0.87,8.73,1.49
50784,-3.79,1.04,15.98,0.82,8.73,1.41
50819,-1.19,3.11,14.07,0.85,8.73,1.27
50859,2.59,-0.23,11.99,1.00,8.73,1.21
50894,5.32,-0.98,11.89,1.12,8.73,1.21
50928,6.33,-2.77,10.62,1.16,8.69,1.31
50963,9.01,-3.42,12.39,1.17,8.73,1.44
50998,10.91,-4.65,16.47,1.10,8.73,1.55
51033,12.16,-4.50,18.63,1.05,8.73,1.60
51068,12.83,-4.73,21.11,1.04,8.72,1.63
51103,11.17,-5.81,23.68,1.00,8.71,1.65
51138,9.58,-6.06,26.23,0.95,8.68,1.62
51173,7.53,-5.47,28.74,0.95,8.61,1.58
51208,4.46,-4.69,30.18,0.94,8.60,1.60
51243,1.81,-4.94,30.46,0.98,8.67,1.65
51278,-0.99,-4.75,30.35,1.02,8.72,1.67
51313,-3.44,-3.95,27.94,1.09,8.72,1.65
51348,-4.97,-3.82,24.94,1.22,8.63,1.68
51383,-5.62,-4.78,21.18,1.29,8.50,1.75
51418,-6.18,-5.21,18.07,1.31,8.35,1.87
51453,-6.73,-5.79,15.77,1.24,8.29,1.98
51489,-6.06,-5.07,13.97,1.08,8.32,2.06
51523,-5.30,-3.13,11.96,0.94,8.39,2.05
51558,-2.04,-2.81,10.38,0.84,8.46,2.03
51593,1.33,-3.56,10.21,0.75,8.47,1.96
51628,5.58,-2.81,9.98,0.70,8.47,1.88
51663,7.55,-2.06,10.45,0.63,8.47,1.82
51698,9.99,-3.26,12.91,0.66,8.50,1.73
51733,12.03,-2.73,16.65,0.62,8.53,1.67
51768,11.49,-2.57,19.68,0.66,8.53,1.61
51803,10.28,-3.95,22.05,0.75,8.52,1.61
51838,9.62,-4.51,24.99,0.79,8.56,1.62
51873,9.04,-3.43,27.68,0.78,8.61,1.61
51908,7.29,-4.58,29.37,0.78,8.59,1.56
51943,4.40,-4.57,30.49,0.84,8.58,1.39
51978,1.23,-3.35,30.74,0.94,8.55,1.23
52013,-1.33,-3.21,29.39,1.06,8.55,1.20
52048,-3.47,-3.96,26.93,1.12,8.54,1.28
52083,-5.33,-3.13,24.06,1.15,8.49,1.35
52118,-6.45,-2.88,20.72,1.11,8.40,1.40
52153,-7.20,-2.72,17.73,1.05,8.33,1.42
52188,-7.03,-1.35,15.50,1.03,8.33,1.48
52223,-4.88,0.06,13.71,1.02,8.36,1.47
52258,-3.03,-0.09,11.85,1.00,8.38,1.41
52293,-1.21,0.02,10.36,1.02,8.39,1.34
52328,1.71,-0.57,10.10,1.07,8.38,1.36
52363,4.52,-1.78,9.05,1.14,8.35,1.37
52398,6.51,-3.48,9.73,1.16,8.37,1.46
52433,9.50,-4.72,12.57,1.16,8.36,1.54
52468,10.99,-4.89,15.48,1.08,8.35,1.62
52503,11.92,-4.19,18.62,0.93,8.36,1.65
52538,11.54,-4.40,21.71,0.82,8.36,1.63
52573,10.85,-5.36,24.27,0.79,8.35,1.62
52608,9.28,-5.07,26.30,0.77,8.34,1.60
52643,7.25,-4.69,28.24,0.74,8.30,1.66
52678,3.36,-4.86,29.36,0.68,8.31,1.77
52713,0.29,-5.29,28.58,0.53,8.25,1.88
52748,-2.13,-5.31,27.82,0.39,8.22,1.87
52783,-4.53,-4.87,26.45,0.36,8.20,1.74
52818,-6.25,-3.21,24.38,0.39,8.19,1.62
52853,-6.96,-1.94,20.77,0.44,8.19,1.50
52893,-7.24,-2.57,18.27,0.46,8.23,1.42
52928,-7.09,-0.74,15.53,0.50,8.26,1.36
52963,-5.04,-0.28,13.01,0.61,8.29,1.35
52998,-4.05,-1.14,10.79,0.72,8.28,1.37
53033,-1.94,-1.25,9.60,0.77,8.30,1.36
53068,1.03,-1.43,9.55,0.80,8.34,1.37
53103,4.13,-0.63,9.80,0.88,8.35,1.32
53138,7.21,-1.04,10.16,0.96,8.32,1.31
53173,9.93,-1.02,13.26,1.04,8.30,1.32
53208,11.49,-2.07,15.20,1.08,8.26,1.40
53243,12.76,-4.18,17.30,1.08,8.24,1.45
53278,11.68,-4.69,20.60,1.05,8.23,1.53
53313,9.84,-4.68,23.46,1.00,8.22,1.58
53348,9.16,-5.44,25.11,0.94,8.19,1.62
53383,7.77,-6.36,26.59,0.94,8.09,1.70
53418,5.31,-6.66,28.12,0.86,8.02,1.75
53453,1.30,-6.57,28.07,0.78,8.01,1.84
53488,-1.58,-5.75,27.49,0.65,8.08,1.91
53523,-3.74,-4.77,26.33,0.57,8.13,1.84
53558,-5.08,-4.17,24.31,0.60,8.14,1.76
53593,-6.36,-3.95,21.46,0.59,8.14,1.74
53628,-7.71,-3.44,18.42,0.64,8.11,1.74
53663,-7.80,-3.13,16.39,0.75,8.11,1.77
53698,-7.11,-3.99,13.97,0.81,8.13,1.91
53733,-4.89,-5.20,11.14,0.82,8.10,2.12
53768,-2.36,-6.17,8.76,0.72,8.08,2.28
53803,1.13,-5.64,8.36,0.51,8.09,2.31
53839,5.33,-4.98,8.96,0.35,8.09,2.23
53873,6.91,-5.38,8.72,0.24,8.09,2.05
53908,8.60,-5.41,10.03,0.20,8.12,1.85
53943,10.62,-3.34,12.78,0.20,8.13,1.68
53978,11.39,-2.20,15.65,0.24,8.11,1.54
54013,11.55,-3.31,18.09,0.33,8.09,1.45
54048,11.60,-2.73,20.84,0.47,8.10,1.41
54083,11.02,-3.12,23.25,0.60,8.06,1.45
54118,8.08,-2.93,25.69,0.71,7.99,1.55
54153,6.01,-4.70,26.46,0.72,7.89,1.74
54188,4.04,-5.48,27.46,0.68,7.93,1.83
54223,0.71,-4.25,27.63,0.60,7.92,1.79
54258,-2.09,-4.34,27.10,0.61,7.97,1.63
54293,-4.22,-2.98,26.11,0.71,8.02,1.50
54328,-5.36,-2.02,23.84,0.87,8.04,1.45
54362,-6.94,-3.40,20.84,0.93,8.05,1.46
54397,-6.96,-2.52,17.67,0.89,8.05,1.47
54432,-6.42,-2.25,14.84,0.80,8.06,1.43
54467,-5.77,-1.13,12.27,0.77,8.06,1.36
54502,-3.96,-0.47,10.17,0.73,8.04,1.21
54537,-1.92,0.47,8.70,0.74,8.06,1.06
54572,0.65,0.46,8.18,0.82,8.07,1.10
54607,3.92,-0.57,8.89,0.86,8.07,1.22
54642,6.39,-3.72,8.25,0.79,8.03,1.37
54677,9.60,-3.06,10.10,0.70,8.01,1.43
54712,11.34,-2.84,12.51,0.64,7.94,1.40
54747,11.38,-3.85,14.00,0.56,7.86,1.34
54782,11.97,-3.84,16.20,0.51,7.87,1.27
54817,11.00,-3.81,19.15,0.51,7.94,1.16
54852,10.01,-3.05,22.05,0.54,7.97,1.07
54887,9.24,-2.74,24.49,0.59,8.02,0.93
54927,6.79,-2.79,26.40,0.71,8.02,0.78
54962,3.77,-2.53,27.89,0.88,8.03,0.65
54997,0.96,-2.22,27.86,1.11,8.00,0.59
55032,-1.67,-3.59,27.46,1.30,8.03,0.72
55068,-3.86,-3.75,25.88,1.32,8.05,0.96
55102,-5.65,-4.10,23.61,1.25,8.05,1.18
55137,-7.59,-3.64,20.84,1.03,8.07,1.30
55172,-6.26,-1.43,17.32,0.93,8.07,1.32
55207,-6.06,0.04,15.21,0.85,8.05,1.28
55242,-6.41,-0.35,12.85,0.86,8.06,1.28
55277,-4.24,-1.27,10.43,0.94,8.02,1.35
55312,-1.66,-0.62,8.73,0.92,7.97,1.34
55347,1.31,-0.59,7.95,0.92,7.90,1.39
55382,4.52,-1.62,8.04,0.92,7.85,1.42
55417,7.29,-1.93,7.80,0.95,7.77,1.41
55452,9.28,-0.13,9.11,0.96,7.76,1.43
55486,9.54,-1.94,10.71,1.02,7.75,1.44
55521,10.48,-2.61,12.82,1.07,7.71,1.47
55556,11.33,-2.98,15.50,1.03,7.70,1.52
55591,11.37,-4.56,18.04,0.94,7.72,1.56
55626,10.77,-4.52,20.65,0.85,7.74,1.56
55660,9.25,-4.76,22.79,0.70,7.82,1.42
55695,7.27,-4.91,24.93,0.68,7.86,1.33
55730,4.39,-4.65,26.17,0.70,7.86,1.36
55765,1.77,-5.46,26.64,0.70,7.92,1.41
55800,-0.74,-4.28,26.54,0.61,7.89,1.52
55835,-2.76,-4.82,24.88,0.42,7.87,1.59
55870,-5.84,-3.99,23.25,0.21,7.81,1.59
55905,-6.75,-2.56,21.22,0.09,7.81,1.49
55940,-7.22,-1.07,19.24,0.10,7.82,1.34
55975,-7.66,-0.44,16.83,0.23,7.84,1.26
56010,-7.25,0.40,13.94,0.38,7.86,1.24
56045,-5.55,-0.07,11.17,0.59,7.86,1.35
56080,-3.58,-2.29,8.47,0.68,7.81,1.50
56115,-1.32,-2.12,7.49,0.69,7.75,1.65
56150,0.17,-4.26,6.29,0.62,7.68,1.78
56185,3.38,-2.89,6.68,0.57,7.72,1.74
56219,6.30,-0.58,8.32,0.55,7.73,1.63
56254,9.06,-0.57,9.25,0.69,7.76,1.49
56289,10.24,-0.72,11.83,0.90,7.78,1.39
56324,10.58,-1.23,14.21,1.06,7.78,1.41
56359,11.44,-4.31,16.20,1.05,7.80,1.45
56394,11.09,-6.11,18.83,0.93,7.87,1.44
56429,10.11,-4.92,22.33,0.79,7.95,1.31
56464,9.27,-4.50,24.66,0.71,8.02,1.07
56499,6.56,-3.47,26.02,0.75,8.00,0.94
56534,3.11,-3.36,26.95,0.85,7.94,1.00
56569,1.02,-4.28,27.26,0.90,7.92,1.16
56604,-1.66,-4.73,26.85,0.88,7.91,1.31
56639,-3.98,-4.06,25.75,0.75,7.94,1.45
56674,-5.71,-2.71,22.83,0.65,7.94,1.48
56709,-6.52,-2.61,19.97,0.67,7.91,1.44
56744,-7.04,-2.15,17.26,0.82,7.86,1.46
56779,-6.56,-2.89,13.99,0.89,7.78,1.50
56815,-6.28,-1.90,11.58,0.85,7.74,1.52
56849,-5.83,-1.29,10.17,0.83,7.78,1.51
56884,-2.96,-1.61,8.42,0.79,7.83,1.41
56919,-0.63,0.48,7.95,0.80,7.88,1.26
56959,3.60,0.88,8.56,0.90,7.92,1.15
56994,6.27,1.20,8.87,0.98,7.89,1.15
57029,7.20,-1.83,8.99,0.98,7.91,1.28
57064,8.61,-4.32,10.02,0.87,7.92,1.40
57099,10.29,-4.35,13.30,0.69,7.97,1.43
57134,10.97,-3.87,16.11,0.54,8.03,1.38
57169,11.43,-3.92,19.49,0.57,8.06,1.34
57204,10.64,-3.74,22.57,0.65,8.03,1.33
57239,9.22,-3.40,24.43,0.70,7.99,1.35
57274,6.62,-5.09,26.08,0.77,7.92,1.44
57309,4.41,-4.72,26.93,0.74,7.87,1.53
57345,1.91,-4.01,27.66,0.69,7.91,1.59
57379,-1.17,-4.20,27.30,0.64,7.95,1.57
57414,-3.71,-3.13,26.25,0.66,8.01,1.53
57449,-4.92,-2.73,23.50,0.70,8.02,1.49
57484,-5.73,-2.73,20.51,0.77,8.00,1.46
57519,-6.83,-2.44,18.10,0.83,7.96,1.48
57554,-7.38,-2.08,15.40,0.86,7.94,1.49
57589,-7.73,-2.31,13.69,0.93,7.94,1.59
57624,-6.35,-2.93,11.84,0.88,8.00,1.59
57659,-3.99,-1.45,9.84,0.84,8.07,1.53
57694,-1.81,0.30,8.93,0.83,8.11,1.46
57729,1.38,0.29,9.12,0.87,8.18,1.42
57764,4.92,-1.26,9.65,0.92,8.18,1.41
57799,7.56,-2.42,9.57,0.98,8.14,1.42
57834,9.87,-1.70,12.06,1.05,8.12,1.43
57869,11.27,-2.89,14.97,1.00,8.11,1.47
57904,12.01,-3.75,17.41,0.94,8.09,1.49
57939,12.07,-4.72,19.85,0.87,8.08,1.48
57974,10.83,-5.69,22.57,0.81,8.10,1.45
58009,9.79,-4.69,24.89,0.76,8.14,1.31
58044,6.96,-5.18,27.06,0.80,8.17,1.22
58079,4.90,-4.69,27.70,0.82,8.14,1.18
58114,1.42,-3.97,27.87,0.89,8.08,1.22
58149,-1.21,-3.86,27.40,0.89,8.06,1.32
58184,-3.96,-5.10,25.62,0.75,8.09,1.43
58219,-5.07,-3.28,22.99,0.58,8.08,1.49
58254,-6.74,-3.42,21.14,0.50,8.10,1.43
58289,-7.33,-1.45,18.91,0.39,8.13,1.33
58324,-7.18,0.11,16.48,0.38,8.18,1.18
58359,-6.56,0.73,14.26,0.47,8.20,1.09
58394,-5.94,1.95,12.22,0.59,8.24,1.08
58429,-3.91,1.66,10.53,0.72,8.28,1.05
58464,-0.14,0.57,10.00,0.83,8.30,1.09
58499,3.91,-1.34,9.56,0.89,8.31,1.18
58534,7.52,-2.65,10.00,0.92,8.27,1.26
58569,9.62,-1.63,11.94,0.91,8.23,1.34
58604,10.74,-3.18,13.28,0.83,8.18,1.39
58639,11.70,-3.80,15.27,0.69,8.17,1.42
58674,12.16,-4.66,17.53,0.64,8.17,1.37
58709,11.55,-4.64,20.71,0.69,8.16,1.38
58744,10.13,-4.08,23.85,0.74,8.16,1.38
58779,8.47,-3.54,25.79,0.78,8.09,1.40
58815,7.11,-5.24,26.59,0.78,8.04,1.50
58849,3.39,-5.54,27.10,0.80,8.03,1.54
58884,0.26,-4.80,28.10,0.77,8.04,1.54
58919,-1.80,-4.73,27.89,0.79,8.11,1.50
58954,-4.49,-5.04,26.60,0.83,8.17,1.52
58994,-6.28,-4.07,24.33,0.83,8.21,1.55
59029,-6.40,-3.47,20.65,0.83,8.21,1.56
59064,-8.02,-2.85,17.88,0.79,8.21,1.56
59099,-6.84,-1.41,14.92,0.78,8.20,1.55
59134,-4.77,-1.53,12.42,0.80,8.20,1.56
59169,-3.08,-1.61,10.68,0.80,8.20,1.54
59204,-0.73,-1.66,9.33,0.80,8.20,1.49
59239,1.35,-0.56,9.11,0.81,8.20,1.46
59274,4.22,-0.54,9.50,0.84,8.21,1.41
59309,6.46,-2.09,10.15,0.84,8.19,1.44
59345,9.51,-3.34,11.41,0.81,8.17,1.47
59379,11.34,-4.70,13.74,0.74,8.12,1.46
59414,12.25,-2.86,17.37,0.72,8.07,1.41
59449,12.47,-3.64,19.52,0.75,8.00,1.38
59484,11.67,-5.48,21.26,0.75,7.94,1.37
59519,9.53,-4.85,23.41,0.75,7.93,1.37
59554,7.08,-4.92,25.19,0.80,7.90,1.41
59589,5.39,-5.58,26.42,0.79,7.94,1.41
59624,2.48,-4.88,27.09,0.80,8.07,1.44
59659,-0.11,-4.46,27.75,0.79,8.11,1.46
59694,-2.76,-4.98,27.29,0.75,8.15,1.45
59729,-5.69,-4.58,25.69,0.69,8.16,1.48
59764,-7.52,-3.74,23.29,0.54,8.14,1.48
59799,-7.29,-1.21,20.58,0.40,8.14,1.42
59834,-7.90,-1.52,17.96,0.41,8.17,1.29
59869,-6.55,0.05,15.20,0.46,8.19,1.27
59904,-4.43,0.54,12.65,0.60,8.19,1.32
59939,-2.70,0.01,10.34,0.69,8.18,1.41
59974,-0.50,-2.05,8.97,0.72,8.14,1.57
60009,2.16,-4.25,8.18,0.67,8.13,1.69
60044,4.29,-3.02,8.20,0.60,8.08,1.69
60079,6.59,-2.31,9.55,0.59,8.02,1.62
60114,9.20,-0.58,11.29,0.63,7.99,1.53
60149,11.25,-1.58,13.33,0.76,7.91,1.48
60184,12.25,-3.41,15.75,0.85,7.88,1.47
60219,11.84,-2.50,18.78,0.91,7.88,1.51
60254,10.63,-4.95,20.82,0.94,7.89,1.56
60289,9.29,-5.97,22.72,0.88,7.97,1.56
60325,6.76,-5.50,25.09,0.86,7.98,1.53
60360,4.70,-5.75,26.69,0.84,7.98,1.48
60394,2.50,-6.37,28.13,0.86,8.09,1.41
60429,-0.81,-4.52,28.31,0.97,8.14,1.35
60464,-3.31,-3.80,27.15,1.00,8.16,1.35
60499,-4.82,-4.31,25.28,1.01,8.17,1.42
60534,-6.16,-4.29,21.56,1.01,8.09,1.47
60569,-6.60,-3.55,18.14,0.94,8.00,1.51
60604,-7.57,-2.99,15.90,0.90,7.94,1.49
60639,-7.76,-2.22,13.78,0.90,7.96,1.50
60674,-5.07,-1.60,11.68,0.88,8.00,1.49
60709,-3.25,-1.10,9.82,0.84,8.02,1.44
60744,-0.72,-1.00,8.55,0.85,8.00,1.40
60779,1.30,-0.32,7.80,0.89,7.99,1.34
60815,4.29,0.57,7.89,0.97,7.96,1.29
60849,7.30,-0.19,9.10,1.04,7.93,1.29
60884,8.68,-2.01,9.89,1.08,7.89,1.35
60919,10.85,-3.89,12.61,1.06,7.94,1.44
60954,11.57,-2.52,16.19,0.99,7.98,1.50
60989,11.48,-4.25,18.14,0.92,8.01,1.52
61029,10.58,-5.91,21.51,0.91,8.04,1.55
61064,9.50,-5.59,23.93,0.84,8.08,1.51
61099,7.34,-5.05,26.27,0.81,8.10,1.49
61134,3.82,-4.78,27.39,0.79,8.10,1.55
61169,1.55,-5.54,27.77,0.77,8.13,1.56
61204,-0.65,-5.50,27.95,0.74,8.13,1.57
61239,-3.48,-4.72,26.28,0.71,8.14,1.58
61274,-5.60,-2.96,24.39,0.71,8.15,1.55
61309,-5.98,-2.83,21.49,0.71,8.14,1.50
61344,-6.22,-2.26,18.47,0.75,8.11,1.48
61379,-7.35,-2.18,16.10,0.75,8.08,1.43
61414,-6.18,-1.46,13.26,0.77,8.06,1.44
61449,-4.01,-1.60,10.82,0.80,8.01,1.42
61484,-2.63,-0.92,9.00,0.80,8.01,1.31
61518,-0.59,-0.01,8.52,0.83,8.01,1.25
61553,1.14,-0.20,8.40,0.87,8.08,1.27
61588,3.94,-2.07,8.19,0.89,8.12,1.34
61623,7.33,-4.98,8.87,0.86,8.15,1.43
61658,9.51,-4.34,11.82,0.81,8.14,1.48
61693,11.12,-3.74,15.06,0.71,8.10,1.45
61728,12.15,-4.36,16.38,0.64,8.11,1.42
61763,11.99,-3.73,19.35,0.64,8.15,1.40
61798,9.57,-3.73,22.41,0.72,8.12,1.46
61833,8.87,-4.46,24.69,0.78,8.11,1.53
61868,7.19,-5.30,26.82,0.81,8.09,1.67
61903,4.91,-6.65,27.67,0.76,8.11,1.79
61938,1.30,-4.95,27.94,0.68,8.16,1.78
61973,-1.51,-4.42,27.65,0.64,8.16,1.70
62008,-3.91,-4.16,25.65,0.71,8.13,1.58
62043,-5.33,-3.99,23.30,0.77,8.09,1.51
62078,-5.86,-3.08,19.91,0.80,8.04,1.48
62113,-6.61,-3.32,16.72,0.82,7.98,1.46
62148,-7.58,-2.26,14.86,0.74,7.95,1.37
62183,-6.91,-1.26,13.11,0.70,7.99,1.31
62218,-5.04,-0.14,11.07,0.70,8.01,1.21
62253,-2.33,0.44,9.38,0.75,8.04,1.09
62288,0.18,0.60,8.48,0.85,8.05,1.10
62323,2.71,-0.29,8.92,0.94,8.09,1.19
62358,4.50,-0.39,9.45,1.00,8.10,1.34
62393,7.03,-0.93,10.50,1.06,8.16,1.43
62428,10.07,-2.71,11.79,1.14,8.15,1.49
62463,12.05,-3.12,14.43,1.22,8.10,1.58
62498,11.67,-3.87,17.67,1.31,8.06,1.72
62533,11.05,-4.27,20.70,1.32,8.02,1.91
62568,10.17,-6.28,22.91,1.24,7.98,2.08
62603,9.89,-7.30,24.63,1.08,7.97,2.19
62638,6.67,-7.69,26.49,0.88,7.97,2.19
62673,2.26,-7.96,27.15,0.70,8.01,2.14
62708,0.23,-7.15,27.70,0.56,8.02,2.01
62743,-1.91,-6.57,28.20,0.50,8.08,1.88
62778,-4.22,-6.16,26.63,0.37,8.16,1.79
62813,-6.60,-4.39,24.40,0.30,8.21,1.67
62848,-7.19,-2.86,20.88,0.22,8.24,1.52
62883,-7.43,-2.04,18.10,0.15,8.27,1.31
62918,-7.02,-0.20,16.23,0.15,8.30,1.09
62953,-5.85,1.87,13.70,0.24,8.36,0.89
62988,-4.22,3.04,11.82,0.42,8.38,0.75
63023,-2.59,2.94,10.50,0.64,8.41,0.71
63063,-0.45,1.41,9.61,0.88,8.49,0.83
63098,3.55,0.08,9.84,1.02,8.55,0.97
63133,7.50,-0.70,11.61,1.12,8.57,1.12
63168,11.02,-1.49,14.21,1.22,8.50,1.25
63203,12.39,-3.16,16.47,1.34,8.37,1.36
63238,12.45,-3.89,18.92,1.49,8.25,1.53
63273,11.34,-5.31,21.35,1.50,8.17,1.76
63308,10.41,-7.58,23.58,1.40,8.17,1.94
63343,8.15,-7.79,25.97,1.30,8.20,2.09
63378,6.82,-8.11,27.30,1.12,8.19,2.21
63413,3.75,-7.81,28.45,0.92,8.25,2.20
63448,0.20,-8.09,28.27,0.82,8.22,2.11
63483,-2.52,-6.85,27.52,0.80,8.24,1.94
63518,-5.35,-5.98,25.39,0.87,8.24,1.80
63553,-6.89,-5.64,23.49,0.91,8.22,1.74
63588,-6.11,-6.38,19.87,0.90,8.19,1.72
63623,-6.33,-6.03,16.61,0.73,8.13,1.63
63658,-6.90,-2.19,14.39,0.54,8.15,1.42
63693,-5.95,-0.35,13.12,0.49,8.25,1.18
63728,-3.13,1.07,10.65,0.54,8.30,0.92
63763,-0.93,2.76,9.40,0.72,8.31,0.69
63798,0.18,3.22,8.92,0.91,8.33,0.68
63834,3.96,2.15,9.39,1.15,8.35,0.70
63868,6.54,-1.28,10.15,1.31,8.35,0.84
63903,10.06,-3.01,12.70,1.36,8.36,1.08
63938,11.88,-3.86,16.10,1.33,8.33,1.27
63973,11.92,-5.65,18.78,1.24,8.26,1.38
64008,11.94,-6.04,20.41,1.11,8.23,1.43
64043,11.83,-7.10,22.70,1.04,8.21,1.48
64078,9.75,-5.78,25.34,0.99,8.17,1.49
64113,6.24,-6.98,26.64,0.95,8.06,1.62
64148,2.87,-7.30,27.10,0.87,8.00,1.81
64183,1.24,-8.09,27.39,0.69,7.97,1.99
64218,-1.55,-6.72,27.94,0.42,8.03,2.10
64253,-4.66,-6.47,26.77,0.26,8.16,2.01
64288,-6.56,-4.46,24.83,0.17,8.27,1.90
64324,-7.30,-3.98,21.81,0.20,8.34,1.74
64358,-6.91,-2.95,18.38,0.26,8.34,1.59
64393,-6.93,-1.10,16.42,0.36,8.33,1.48
64428,-6.51,-1.14,13.86,0.49,8.34,1.43
64463,-4.86,-0.88,11.59,0.57,8.39,1.36
64498,-0.89,-0.26,10.28,0.65,8.40,1.22
64533,1.52,0.01,9.70,0.77,8.34,1.07
64568,5.37,0.67,10.12,0.99,8.24,0.92
64603,7.27,2.13,9.60,1.24,8.17,0.91
64638,9.74,2.07,11.56,1.54,8.19,0.97
64673,11.05,-2.41,14.36,1.67,8.21,1.15
64708,12.00,-4.86,17.10,1.64,8.20,1.34
64743,11.66,-6.43,20.52,1.47,8.21,1.44
64778,11.18,-6.51,22.87,1.27,8.20,1.44
64813,10.22,-7.14,24.48,1.16,8.20,1.40
64848,7.98,-6.55,25.97,1.13,8.09,1.36
64883,3.37,-5.53,26.89,1.12,8.01,1.36
64918,0.96,-6.61,26.45,1.08,7.99,1.44
64953,-0.04,-6.32,27.30,1.01,7.99,1.63
64988,-3.28,-6.79,26.16,0.83,8.07,1.75
65023,-5.76,-5.63,23.94,0.60,8.14,1.82
65058,-7.20,-4.74,21.52,0.45,8.20,1.76
65098,-7.61,-2.89,18.51,0.33,8.23,1.66
65133,-6.72,-2.64,15.69,0.39,8.22,1.59
65168,-5.27,-2.17,13.10,0.48,8.18,1.59
65203,-3.42,-3.29,10.50,0.54,8.09,1.66
65238,-1.67,-2.96,8.99,0.54,8.01,1.72
65273,-0.73,-3.69,7.32,0.49,7.98,1.80
65308,2.83,-5.17,7.09,0.34,8.05,1.83
65344,6.77,-4.82,8.46,0.22,8.08,1.84
65378,9.03,-2.72,11.30,0.19,8.10,1.69
65413,10.40,-2.46,13.17,0.26,8.05,1.50
65448,11.11,-2.24,15.05,0.38,8.04,1.38
65483,11.60,-3.02,17.21,0.52,8.02,1.32
65517,11.36,-2.89,19.91,0.60,8.05,1.28
65552,10.41,-4.19,22.58,0.69,8.12,1.31
65587,9.12,-3.12,25.32,0.72,8.18,1.29
65622,6.81,-3.61,27.04,0.78,8.17,1.37
65657,3.95,-4.90,28.24,0.83,8.18,1.47
65692,0.62,-4.90,27.88,0.85,8.14,1.52
65726,-1.46,-4.47,27.96,0.90,8.19,1.50
65761,-4.25,-2.72,27.63,1.08,8.25,1.42
65796,-6.04,-3.68,25.00,1.28,8.26,1.42
65831,-5.96,-4.41,20.84,1.39,8.23,1.53
65866,-6.81,-4.69,17.87,1.31,8.20,1.64
65901,-6.68,-3.81,15.25,1.16,8.21,1.66
65936,-5.62,-1.63,13.30,1.03,8.24,1.66
65971,-4.00,-0.80,11.22,0.95,8.22,1.57
66006,-2.05,0.27,9.54,0.92,8.25,1.49
66041,0.24,-0.34,9.36,0.92,8.25,1.48
66076,3.30,-1.98,9.25,0.95,8.25,1.46
66110,6.89,-0.66,9.99,0.98,8.24,1.49
66144,9.82,-0.53,11.54,1.01,8.26,1.52
66179,10.49,-1.96,14.49,1.00,8.29,1.57
66214,11.10,-3.75,17.23,1.05,8.29,1.63
66249,11.72,-4.35,19.22,0.98,8.30,1.69
66284,11.21,-4.98,22.23,0.96,8.33,1.77
66319,9.40,-5.59,24.84,0.94,8.39,1.85
66353,7.62,-6.56,27.00,0.88,8.40,1.83
66388,4.73,-6.97,27.97,0.82,8.34,1.86
66423,2.29,-7.07,28.97,0.73,8.37,1.89
66458,-0.40,-5.29,29.00,0.68,8.39,1.80
66493,-3.21,-3.68,27.33,0.73,8.41,1.68
66528,-5.62,-4.19,25.26,0.79,8.40,1.63
66563,-7.62,-3.62,23.91,0.89,8.43,1.61
66598,-7.81,-3.13,20.81,0.93,8.43,1.63
66634,-7.36,-3.97,17.60,0.95,8.41,1.66
66668,-6.62,-3.28,15.00,0.94,8.39,1.67
66703,-4.65,-2.43,12.18,0.93,8.32,1.68
66738,-2.77,-1.89,10.30,0.88,8.32,1.61
66773,0.62,-0.75,10.13,0.87,8.36,1.52
66808,4.67,-0.74,10.91,0.89,8.39,1.48
66844,7.62,-1.72,11.40,0.91,8.40,1.49
66878,9.78,-1.87,12.79,0.97,8.45,1.51
66913,11.14,-2.72,15.03,1.04,8.48,1.53
66948,11.51,-4.44,17.26,1.01,8.52,1.59
66983,12.45,-4.88,20.40,0.94,8.53,1.62
67018,12.05,-5.55,23.46,0.89,8.50,1.62
67053,9.97,-6.33,25.44,0.84,8.52,1.55
67088,6.73,-5.70,27.22,0.84,8.44,1.48
67128,4.51,-4.82,28.50,0.84,8.35,1.43
67163,1.43,-4.23,28.97,0.83,8.35,1.48
67198,-1.40,-3.90,29.50,0.78,8.39,1.56
67233,-3.43,-4.63,27.68,0.64,8.47,1.64
67268,-4.88,-4.27,24.98,0.61,8.49,1.59
67303,-7.03,-3.90,22.71,0.49,8.49,1.53
67338,-6.25,-1.45,19.14,0.38,8.44,1.42
67373,-7.04,-0.07,16.84,0.38,8.42,1.23
67408,-7.07,1.11,14.82,0.47,8.44,1.17
67443,-5.32,0.01,12.57,0.61,8.43,1.21
67478,-3.11,-1.03,10.94,0.70,8.48,1.27
67513,-0.45,-2.51,9.79,0.74,8.52,1.42
67548,3.84,-3.12,10.38,0.78,8.61,1.46
67583,7.63,-3.59,11.78,0.75,8.66,1.53
67618,9.69,-2.66,13.39,0.78,8.70,1.54
67653,11.56,-3.83,16.62,0.89,8.73,1.52
67688,12.51,-4.17,20.18,0.96,8.73,1.54
67723,12.90,-3.21,23.06,1.01,8.69,1.58
67758,12.04,-4.68,25.66,1.06,8.64,1.66
67793,9.49,-4.83,27.54,1.04,8.62,1.69
67828,7.48,-5.31,29.26,0.99,8.59,1.68
67863,4.06,-5.54,30.20,1.00,8.62,1.63
67898,0.32,-4.62,29.93,1.06,8.58,1.58
67933,-2.77,-4.85,29.82,1.12,8.59,1.57
67968,-5.03,-4.00,28.43,1.21,8.60,1.60
68003,-5.98,-4.30,25.00,1.31,8.56,1.66
68038,-6.45,-4.58,22.07,1.38,8.51,1.80
68073,-8.07,-5.37,19.31,1.43,8.48,1.96
68108,-7.17,-6.34,16.39,1.32,8.52,2.09
68143,-5.36,-5.83,14.15,1.16,8.58,2.16
68178,-3.21,-6.41,12.05,1.00,8.64,2.17
68213,-0.91,-6.97,11.28,0.86,8.73,2.19
68248,3.01,-7.73,11.80,0.67,8.73,2.23
68283,6.45,-7.06,12.86,0.56,8.73,2.13
68319,10.08,-5.66,14.13,0.46,8.73,1.97
68353,10.67,-3.50,16.22,0.46,8.73,1.82
68388,10.92,-2.75,19.53,0.54,8.73,1.73
68423,11.05,-3.39,22.81,0.56,8.73,1.65
68458,10.99,-4.86,25.92,0.54,8.73,1.57
68493,9.62,-5.28,28.20,0.56,8.73,1.43
68528,6.46,-4.82,29.52,0.66,8.73,1.31
68563,3.73,-5.68,30.66,0.74,8.73,1.23
68598,0.66,-4.75,31.05,0.80,8.73,1.24
68633,-2.04,-5.20,29.50,0.80,8.73,1.32
68668,-4.66,-4.56,28.02,0.70,8.73,1.40
68703,-6.23,-2.76,25.44,0.65,8.73,1.38
68738,-6.67,-2.09,22.91,0.57,8.73,1.28
68773,-7.31,-0.72,20.29,0.51,8.73,1.13
68809,-6.26,1.73,17.93,0.58,8.73,0.99
68844,-4.00,2.29,15.61,0.76,8.73,0.93
68878,-3.35,2.92,13.15,0.94,8.73,0.83
68913,0.64,1.81,12.24,1.15,8.73,0.88
68948,4.53,0.35,11.94,1.32,8.73,1.04
68983,6.36,-1.80,11.49,1.43,8.73,1.17
69018,8.91,-3.73,12.58,1.43,8.73,1.40
69053,10.33,-4.94,14.71,1.34,8.70,1.60
69088,11.00,-5.87,17.81,1.22,8.67,1.72
69123,11.52,-6.57,21.21,1.08,8.64,1.79
69163,12.77,-6.43,23.72,0.99,8.62,1.86
69198,11.48,-7.62,26.67,0.94,8.63,1.98
69233,8.66,-7.74,28.60,0.86,8.60,2.07
69268,6.00,-8.44,29.69,0.71,8.58,2.18
69303,2.56,-8.06,31.10,0.50,8.65,2.23
69339,-0.38,-7.29,30.82,0.30,8.73,2.13
69373,-3.43,-6.71,30.33,0.16,8.73,2.01
69408,-4.87,-4.63,28.14,0.05,8.73,1.84
69443,-5.87,-2.63,25.52,0.02,8.73,1.61
69478,-6.55,-0.77,21.96,0.07,8.73,1.35
69512,-6.58,0.92,20.22,0.19,8.73,1.19
69547,-3.95,2.26,17.06,0.47,8.73,1.12
69582,-2.38,-0.32,14.18,0.73,8.73,1.19
69617,2.03,0.83,14.46,0.88,8.73,1.18
69652,5.54,3.13,15.20,1.10,8.73,1.15
69687,8.24,-0.11,15.13,1.41,8.73,1.18
69722,10.33,0.14,17.92,1.69,8.73,1.30
69757,11.23,-3.53,20.70,1.80,8.73,1.55
69792,11.59,-7.33,23.45,1.74,8.73,1.82
69827,10.86,-7.90,28.19,1.62,8.73,2.00
69862,10.23,-10.47,30.73,1.42,8.73,2.11
69897,7.24,-9.14,33.63,1.21,8.73,2.15
69932,3.61,-9.62,34.01,1.07,8.73,2.21
69967,0.28,-10.18,33.62,0.88,8.73,2.23
70002,-2.39,-6.05,33.67,0.82,8.73,2.12
70036,-4.25,-8.01,30.60,0.70,8.73,2.04
70071,-6.18,-7.04,27.76,0.37,8.73,1.95
70106,-7.91,-3.84,26.22,0.30,8.73,1.77
70141,-7.12,-4.18,22.58,0.33,8.73,1.62
70176,-6.19,0.43,20.89,0.42,8.73,1.47
70211,-2.04,-1.38,17.37,0.63,8.73,1.33
70245,1.58,0.27,15.52,0.76,8.73,1.26
70279,5.79,1.36,16.23,0.92,8.73,1.24
70313,8.56,-0.09,16.98,1.15,8.73,1.26
70347,10.18,-3.21,17.31,1.27,8.73,1.37
70382,11.36,-3.05,20.16,1.41,8.73,1.52
70417,12.94,-3.68,23.43,1.57,8.73,1.68
70452,12.66,-6.36,25.26,1.63,8.73,1.94
70487,11.24,-7.06,29.27,1.53,8.73,2.16
70522,8.14,-9.45,31.38,1.38,8.73,2.29
70557,5.74,-10.94,33.08,1.15,8.73,2.33
70592,3.17,-8.95,34.61,0.96,8.73,2.18
70627,-0.66,-8.33,32.80,1.01,8.73,1.97
70662,-3.54,-8.73,30.44,0.90,8.73,1.92
70697,-5.47,-7.64,28.65,0.72,8.73,1.89
70732,-6.55,-6.77,25.60,0.47,8.73,1.79
70767,-8.21,-2.99,23.82,0.20,8.73,1.52
70802,-6.23,0.31,20.93,0.19,8.73,1.20
70837,-2.96,-0.74,17.10,0.33,8.73,1.00
70872,-0.13,2.39,14.99,0.56,8.73,0.84
70907,3.53,0.47,14.07,0.84,8.73,0.84
70942,5.74,-1.92,14.04,1.02,8.73,1.00
70977,8.82,-1.08,15.58,1.14,8.73,1.13
71012,11.26,-3.42,17.81,1.28,8.73,1.26
71047,12.13,-4.82,20.60,1.24,8.73,1.42
71082,11.90,-5.65,24.45,1.21,8.73,1.51
71117,10.61,-6.72,26.87,1.27,8.73,1.65
71152,9.76,-7.28,29.12,1.24,8.73,1.76
71192,6.80,-7.16,31.80,1.13,8.73,1.88
71227,3.93,-6.79,32.19,1.01,8.73,2.01
71262,0.24,-8.29,31.39,0.84,8.73,2.10
71297,-2.49,-9.21,29.71,0.58,8.73,2.20
71332,-5.01,-6.94,27.78,0.28,8.73,2.14
71367,-6.82,-4.21,26.52,0.17,8.73,1.93
71402,-7.29,-3.79,23.52,0.16,8.73,1.74
71437,-7.04,-3.04,20.45,0.27,8.73,1.62
71472,-5.96,-2.62,18.27,0.40,8.73,1.56
71507,-3.87,-1.79,15.39,0.52,8.73,1.54
71542,-1.83,-0.77,13.52,0.59,8.73,1.46
71577,1.29,-1.34,13.54,0.69,8.73,1.38
71612,4.05,-2.51,12.97,0.75,8.73,1.41
71647,7.14,-2.43,14.34,0.85,8.73,1.38
71682,9.65,-3.61,16.86,0.96,8.73,1.40
71717,11.00,-4.52,20.04,0.96,8.73,1.46
71752,11.74,-3.92,23.09,1.05,8.73,1.50
71787,12.10,-5.40,25.13,1.13,8.73,1.58
71823,11.31,-6.86,27.74,1.09,8.73,1.62
71857,9.90,-7.42,29.57,1.03,8.73,1.70
71892,6.62,-7.15,30.32,0.98,8.73,1.77
71928,3.73,-7.02,30.71,0.91,8.73,1.81
71962,0.65,-6.98,30.88,0.87,8.73,1.88
71997,-2.63,-6.76,29.47,0.77,8.73,1.86
72032,-4.59,-5.73,27.41,0.63,8.73,1.85
72067,-6.41,-5.03,24.84,0.52,8.73,1.78
72102,-7.07,-3.83,22.39,0.36,8.73,1.65
72137,-6.18,-2.31,19.09,0.34,8.73,1.51
72172,-6.00,-1.02,16.51,0.42,8.73,1.43
72207,-5.35,-1.02,14.15,0.54,8.73,1.40
72242,-1.12,-1.87,12.84,0.64,8.73,1.46
72277,1.21,-2.75,11.93,0.68,8.73,1.52
72312,4.09,-2.62,11.90,0.72,8.73,1.52
72347,7.60,-1.89,14.39,0.79,8.73,1.50
72382,10.28,-1.14,17.77,0.94,8.73,1.46
72417,11.86,-1.83,20.89,1.08,8.73,1.49
72452,12.13,-3.19,23.33,1.22,8.73,1.56
72487,10.69,-6.65,25.48,1.27,8.73,1.69
72522,9.18,-6.99,27.72,1.11,8.73,1.67
72557,7.06,-6.28,30.19,1.06,8.73,1.62
72592,4.31,-4.75,31.56,1.05,8.73,1.57
72627,1.75,-4.41,32.01,1.11,8.73,1.54
72662,-1.21,-5.36,31.35,1.25,8.73,1.51
72697,-3.68,-6.24,28.47,1.30,8.73,1.58
72732,-5.53,-5.83,26.10,1.31,8.73,1.66
72767,-7.40,-6.46,24.55,1.18,8.73,1.75
72802,-7.72,-5.36,22.16,1.03,8.73,1.79
72838,-6.75,-3.68,19.26,0.90,8.73,1.76
72872,-4.69,-2.56,16.85,0.88,8.73,1.75
72907,-3.65,-5.20,14.42,0.86,8.73,1.76
72942,0.02,-5.10,13.81,0.78,8.73,1.81
72977,4.84,-4.87,14.88,0.67,8.73,1.91
73012,8.05,-5.66,15.24,0.52,8.73,1.92
73047,11.45,-5.92,16.61,0.40,8.73,1.87
73081,12.20,-4.63,18.83,0.33,8.73,1.76
73116,11.98,-4.01,22.00,0.39,8.73,1.66
73152,12.03,-3.22,25.17,0.55,8.73,1.65
73186,10.68,-3.14,28.27,0.80,8.73,1.74
73226,9.66,-4.52,30.60,0.85,8.73,1.96
73261,6.73,-5.44,31.97,0.84,8.73,2.09
73296,2.60,-6.94,32.49,0.81,8.73,2.10
73331,-0.65,-5.59,31.95,0.74,8.73,2.01
73366,-4.07,-5.65,31.10,0.75,8.73,1.89
73401,-5.75,-4.23,30.03,0.82,8.73,1.83
73436,-6.18,-3.95,26.95,0.93,8.73,1.83
73471,-7.43,-4.54,24.23,1.06,8.73,1.92
73506,-7.15,-5.38,21.03,1.12,8.73,2.08
73541,-4.09,-4.45,18.36,1.06,8.73,2.23
73576,-1.62,-4.68,15.10,1.01,8.73,2.28
73611,1.75,-4.42,13.39,0.87,8.73,2.21
73646,5.85,-3.04,13.89,0.81,8.73,2.02
73680,7.50,-2.09,14.20,0.87,8.73,1.84
73715,9.93,-2.93,16.31,0.90,8.73,1.80
73750,10.82,-4.52,19.63,0.96,8.73,1.76
73785,11.36,-4.87,22.65,0.88,8.73,1.77
73820,11.48,-4.81,25.91,0.82,8.73,1.72
73855,10.54,-6.33,28.58,0.77,8.73,1.58
73890,8.38,-6.02,30.81,0.72,8.73,1.34
73925,6.36,-4.51,32.51,0.75,8.73,1.17
73960,3.61,-3.51,34.04,0.92,8.73,1.15
73995,-0.65,-5.48,33.47,1.02,8.73,1.33
74030,-3.70,-5.10,32.24,0.97,8.73,1.52
74065,-5.08,-3.95,31.15,0.94,8.73,1.59
74100,-5.69,-2.83,27.80,0.90,8.73,1.62
74135,-6.47,-3.06,24.19,0.92,8.73,1.64
74170,-5.60,-0.70,20.88,0.95,8.73,1.66
74205,-3.49,-3.31,17.95,1.04,8.73,1.77
74240,-2.02,-4.02,15.28,0.98,8.73,1.84
74275,0.92,-2.06,14.94,0.95,8.73,1.85
74310,5.14,-3.84,15.45,0.93,8.73,1.94
74346,8.02,-5.14,15.85,0.81,8.73,1.97
74380,11.44,-2.52,18.93,0.79,8.73,1.89
74415,12.43,-3.51,21.02,0.84,8.73,1.82
74450,13.54,-3.60,23.11,0.94,8.73,1.81
74485,11.99,-4.93,26.76,0.99,8.73,1.86
74520,9.51,-5.24,29.95,1.03,8.73,1.93
74555,7.30,-7.26,31.63,1.01,8.73,1.96
74590,4.82,-8.27,32.47,0.92,8.73,1.96
74624,2.59,-6.88,33.44,0.85,8.73,1.85
74659,-0.07,-3.73,34.10,0.90,8.73,1.65
74694,-3.83,-5.23,32.14,1.01,8.73,1.61
74729,-5.92,-4.76,30.38,1.02,8.73,1.63
74764,-6.87,-4.85,27.47,0.95,8.73,1.67
74799,-7.37,-3.75,23.82,0.82,8.73,1.64
74835,-5.72,-0.53,20.82,0.76,8.73,1.57
74869,-2.79,-0.87,17.92,0.85,8.73,1.56
74904,-0.58,-3.04,15.27,0.90,8.73,1.57
74939,2.17,-2.74,14.62,0.88,8.73,1.67
74974,6.43,-3.92,15.20,0.86,8.73,1.77
75009,7.90,-4.99,16.30,0.75,8.73,1.88
75044,11.20,-4.95,19.10,0.67,8.73,1.84
75080,12.70,-2.84,22.10,0.65,8.73,1.76
75113,13.22,-4.80,24.08,0.77,8.73,1.74
75148,12.18,-5.02,27.60,0.87,8.73,1.81
75183,10.48,-4.95,30.46,0.87,8.73,1.78
75218,7.56,-5.49,33.39,0.91,8.73,1.75
75258,4.94,-4.70,35.32,0.86,8.73,1.67
75293,0.82,-5.69,35.25,0.96,8.73,1.61
75329,-2.23,-4.78,33.87,0.98,8.73,1.60
75363,-4.46,-3.95,30.96,1.06,8.73,1.62
75398,-6.23,-4.96,27.85,1.01,8.73,1.67
75433,-5.69,-4.05,24.26,0.89,8.73,1.63
75468,-5.01,-2.44,20.84,0.78,8.73,1.50
75502,-4.29,-3.07,18.08,0.77,8.73,1.41
75537,-2.68,-0.48,16.52,0.75,8.73,1.30
75572,-0.11,1.51,15.66,0.89,8.73,1.31
75607,3.32,-1.89,14.75,0.99,8.73,1.44
75642,7.39,-2.60,15.96,0.94,8.73,1.57
75676,9.99,-2.19,17.44,0.90,8.73,1.66
75710,11.03,-5.20,19.87,0.85,8.73,1.71
75745,11.54,-4.58,22.53,0.75,8.73,1.71
75780,12.18,-4.18,26.03,0.78,8.73,1.75
75816,10.92,-4.58,30.05,0.89,8.73,1.82
75850,8.26,-7.01,32.50,0.91,8.73,1.95
75885,5.64,-6.74,33.99,0.80,8.73,2.10
75920,3.22,-7.70,34.61,0.69,8.73,2.19
75955,0.07,-7.61,34.44,0.51,8.73,2.19
75990,-3.29,-4.69,33.39,0.47,8.73,2.03
76025,-5.67,-3.10,30.74,0.64,8.73,1.87
76060,-6.08,-4.37,26.51,0.73,8.73,1.80
76095,-6.45,-3.64,23.62,0.73,8.73,1.72
76130,-6.14,-2.71,20.87,0.73,8.73,1.65
76165,-3.16,-4.08,17.42,0.72,8.73,1.62
76200,0.11,-1.25,15.59,0.74,8.73,1.56
76235,2.13,-3.19,14.42,0.81,8.73,1.70
76270,5.48,-3.93,15.41,0.79,8.73,1.79
76305,7.73,-3.54,16.18,0.78,8.73,1.76
76341,10.00,-4.06,18.50,0.88,8.73,1.70
76375,11.89,-4.13,21.26,0.88,8.73,1.71
76410,12.94,-4.92,24.66,0.96,8.73,1.73
76445,12.16,-5.43,27.82,1.08,8.73,1.84
76479,9.91,-7.97,30.20,1.05,8.73,1.97
76514,7.70,-6.99,32.77,1.00,8.73,2.01
76549,5.44,-6.93,33.68,0.94,8.73,2.07
76583,2.31,-6.49,33.47,0.85,8.73,2.06
76617,-0.95,-7.24,33.24,0.80,8.73,1.99
76652,-3.87,-5.32,31.44,0.81,8.73,1.92
76687,-6.00,-3.74,28.17,0.92,8.73,1.88
76722,-6.90,-4.55,24.69,1.03,8.73,1.91
76757,-6.94,-4.65,21.51,1.06,8.73,1.98
76792,-6.18,-3.75,19.63,1.05,8.73,2.05
76828,-3.67,-2.42,16.84,0.98,8.73,2.03
76862,-1.12,-4.06,14.26,0.93,8.73,1.95
76897,1.57,-2.93,14.59,0.88,8.73,1.81
76932,5.62,-0.64,15.22,0.96,8.73,1.74
76967,8.36,-4.07,15.46,1.04,8.73,1.73
77002,10.16,-3.83,18.17,1.06,8.73,1.74
77037,11.20,-3.03,21.48,1.11,8.73,1.79
77072,11.99,-5.57,24.60,1.11,8.73,1.84
77107,11.66,-6.87,27.60,1.08,8.73,1.90
77142,10.95,-5.95,30.57,1.03,8.73,1.95
77177,7.85,-6.05,33.09,1.00,8.73,1.91
77212,3.88,-7.81,33.38,0.93,8.73,1.89
77247,0.27,-6.68,33.40,0.84,8.73,1.88
77287,-1.76,-6.15,32.51,0.85,8.73,1.79
77323,-4.66,-5.20,30.74,0.89,8.73,1.74
77357,-6.76,-4.34,27.41,1.00,8.73,1.72
77392,-7.26,-4.78,23.84,0.94,8.73,1.75
77427,-7.01,-2.44,21.45,0.78,8.73,1.66
77462,-5.57,-0.08,19.65,0.71,8.73,1.51
77497,-4.16,-0.67,17.10,0.77,8.73,1.41
77532,-0.45,-0.53,15.12,0.83,8.73,1.37
77567,3.11,-0.20,15.25,0.91,8.73,1.39
77602,6.42,-1.73,15.13,0.99,8.73,1.49
77637,9.89,-3.90,15.89,0.94,8.73,1.61
77672,11.63,-4.70,19.28,0.92,8.73,1.61
77707,12.41,-3.36,22.60,0.85,8.73,1.60
77742,12.11,-4.33,25.31,0.93,8.73,1.61
77777,10.81,-5.57,27.93,0.98,8.73,1.66
77812,9.17,-4.92,29.99,1.01,8.73,1.71
77847,7.75,-4.76,32.23,0.99,8.73,1.78
77882,4.53,-5.66,33.24,0.97,8.73,1.81
77917,0.56,-6.81,32.97,0.96,8.73,1.80
77952,-2.09,-4.79,32.15,1.03,8.73,1.69
77987,-4.94,-4.43,30.99,1.19,8.73,1.66
78022,-6.71,-4.63,27.96,1.35,8.73,1.74
78057,-6.38,-5.13,23.85,1.29,8.73,1.84
78092,-6.11,-4.42,20.54,1.07,8.73,1.82
78127,-5.53,-0.76,18.09,0.90,8.73,1.70
78162,-4.38,-0.85,15.86,0.85,8.73,1.52
78197,-0.58,-1.42,14.37,0.87,8.73,1.40
78232,2.50,-1.13,14.25,0.89,8.73,1.40
78267,6.70,-1.30,14.67,0.95,8.73,1.47
78302,10.18,-4.55,15.60,0.86,8.73,1.62
78338,11.71,-7.40,17.69,0.61,8.73,1.68
78372,12.41,-6.99,20.54,0.34,8.73,1.60
78407,11.98,-4.41,23.10,0.24,8.73,1.43
78442,11.47,-3.20,26.20,0.41,8.73,1.34
78477,10.35,-4.08,28.43,0.60,8.73,1.36
78512,7.06,-4.90,30.69,0.78,8.73,1.52
78547,4.35,-6.51,32.98,0.81,8.73,1.60
78582,1.53,-4.24,33.44,0.84,8.73,1.55
78617,-1.19,-4.33,30.73,0.91,8.73,1.53
78652,-3.59,-3.12,29.35,1.00,8.73,1.54
78687,-5.15,-2.53,26.42,1.06,8.73,1.57
78722,-6.39,-2.89,23.89,0.98,8.73,1.58
78757,-7.58,-1.81,21.23,0.86,8.73,1.54
78792,-6.75,2.48,19.00,0.76,8.73,1.39
78828,-3.99,2.42,16.10,0.75,8.73,1.17
78862,-1.26,1.21,14.30,0.87,8.73,1.04
78897,2.66,-1.12,12.90,0.98,8.73,1.05
78932,6.54,-2.47,12.62,1.03,8.73,1.24
78967,9.12,-2.94,13.24,0.95,8.73,1.42
79002,11.35,-4.44,15.54,0.88,8.73,1.52
79037,11.51,-5.82,17.49,0.68,8.73,1.54
79072,11.89,-3.86,20.31,0.58,8.73,1.49
79107,11.45,-3.27,23.60,0.62,8.73,1.47
79142,10.73,-3.28,27.25,0.77,8.73,1.52
79177,8.77,-4.81,29.44,0.90,8.73,1.64
79212,5.83,-6.47,30.20,0.90,8.73,1.76
79247,2.98,-7.73,31.11,0.84,8.73,1.89
79282,-0.14,-6.35,31.14,0.70,8.73,1.91
79322,-3.14,-4.75,30.33,0.75,8.73,1.78
79357,-5.57,-4.21,28.39,0.80,8.73,1.75
79392,-6.65,-4.31,25.29,0.80,8.73,1.76
79426,-6.53,-2.52,21.81,0.87,8.73,1.78
79461,-6.84,-2.11,18.65,0.95,8.73,1.84
79496,-5.80,-3.02,15.88,1.05,8.73,2.03
79531,-2.61,-4.88,13.05,1.05,8.63,2.29
79565,-1.65,-7.98,11.37,0.90,8.57,2.43
79600,0.66,-5.96,10.59,0.69,8.56,2.44
79635,4.83,-1.21,10.75,0.62,8.67,2.10
79670,7.95,0.24,12.43,0.78,8.73,1.81
79705,10.79,0.29,16.05,0.94,8.73,1.70
79740,11.74,-2.60,17.94,1.01,8.73,1.69
79775,12.19,-2.99,20.89,1.04,8.68,1.74
79810,10.99,-4.39,23.31,1.02,8.65,1.79
79845,10.05,-5.64,26.02,1.02,8.66,1.84
79880,8.76,-5.43,28.61,0.95,8.69,1.83
79915,6.53,-6.24,30.01,0.91,8.73,1.85
79950,3.38,-6.79,30.62,0.91,8.73,1.79
79985,0.06,-6.03,30.85,0.88,8.73,1.72
80020,-2.93,-5.34,30.22,0.90,8.73,1.63
80055,-5.36,-4.31,28.37,1.05,8.73,1.55
80090,-5.71,-4.05,24.75,1.28,8.73,1.57
80125,-6.66,-5.65,21.03,1.35,8.64,1.69
80160,-7.67,-4.74,18.58,1.22,8.62,1.75
80194,-7.13,-1.80,16.74,1.03,8.67,1.72
80229,-3.66,-0.57,14.26,0.93,8.69,1.63
80264,-1.07,0.51,12.60,0.91,8.72,1.53
80299,2.55,-0.34,11.43,0.93,8.72,1.55
80335,4.77,-0.61,11.47,0.97,8.69,1.59
80370,6.56,-1.27,12.11,0.92,8.69,1.67
80404,10.38,-1.87,13.87,0.94,8.71,1.67
80439,11.61,-2.53,15.85,0.99,8.70,1.68
80474,12.54,-3.34,19.56,1.03,8.71,1.70
80510,12.52,-2.63,22.76,1.05,8.68,1.76
80544,11.26,-4.66,25.06,1.06,8.67,1.84
80579,9.33,-6.22,27.15,0.98,8.67,1.83
80614,6.74,-6.53,29.30,0.91,8.65,1.84
80649,4.07,-5.97,30.85,0.85,8.70,1.69
80684,0.96,-5.43,31.22,0.85,8.73,1.57
80719,-1.59,-4.49,30.09,0.92,8.73,1.47
80754,-4.12,-5.58,28.22,0.99,8.71,1.46
80789,-6.35,-4.15,26.19,0.95,8.68,1.51
80824,-6.27,-3.64,22.19,0.84,8.65,1.52
80859,-6.97,-3.38,19.26,0.73,8.63,1.48
80894,-6.50,-1.61,17.22,0.69,8.65,1.41
80929,-4.75,0.56,15.61,0.70,8.72,1.37
80964,-2.57,1.69,13.77,0.76,8.73,1.35
80999,-0.41,0.94,13.04,0.82,8.73,1.39
81034,2.93,0.34,12.15,0.84,8.73,1.47
81069,6.12,-2.07,11.97,0.84,8.73,1.55
81104,8.96,-3.26,12.81,0.81,8.73,1.60
81139,10.42,-4.56,14.97,0.77,8.73,1.60
81174,11.58,-3.99,18.42,0.77,8.73,1.58
81209,12.11,-3.16,21.39,0.83,8.71,1.56
81244,10.95,-4.69,24.03,0.94,8.65,1.59
81279,9.01,-5.14,26.26,0.94,8.60,1.59
81315,7.43,-6.55,28.20,0.94,8.59,1.57
81354,5.13,-4.00,30.96,0.95,8.64,1.52
81389,1.88,-4.30,31.01,1.02,8.72,1.52
81424,-0.93,-3.95,29.93,1.07,8.73,1.54
81459,-3.97,-4.79,28.29,1.08,8.69,1.59
81494,-5.44,-3.69,25.52,1.11,8.64,1.65
81529,-6.47,-3.67,22.82,1.14,8.61,1.70
81564,-7.51,-4.05,20.57,1.12,8.61,1.76
81600,-7.63,-4.02,18.33,1.08,8.66,1.85
81634,-7.15,-4.76,16.61,1.07,8.73,2.01
81669,-5.18,-4.62,14.23,0.98,8.73,2.05
81704,-1.18,-2.60,13.43,0.89,8.73,2.03
81739,4.09,-1.52,13.19,0.85,8.73,1.95
81774,7.27,-1.41,13.15,0.88,8.73,1.84
81809,9.81,-1.89,14.77,0.93,8.73,1.76
81844,10.86,-3.34,17.61,1.06,8.73,1.72
81879,11.17,-2.98,20.29,1.04,8.73,1.77
81914,12.02,-4.36,22.68,0.97,8.73,1.82
81949,11.25,-5.10,25.47,0.95,8.73,1.86
81984,9.94,-5.98,27.62,0.91,8.73,1.85
82019,7.24,-5.71,30.00,0.92,8.73,1.82
82054,4.38,-5.83,31.30,0.89,8.73,1.73
82089,1.43,-5.42,31.00,0.89,8.73,1.62
82124,-1.25,-4.74,30.25,0.99,8.73,1.50
82159,-3.73,-4.81,28.28,1.14,8.73,1.47
82194,-5.65,-5.24,25.63,1.19,8.73,1.55
82229,-6.77,-4.71,23.37,1.10,8.73,1.61
82264,-7.89,-4.32,20.93,0.99,8.73,1.63
82299,-6.80,-2.63,18.13,0.97,8.73,1.61
82335,-4.83,-2.24,15.53,0.96,8.73,1.60
82369,-2.05,-4.31,12.91,0.99,8.73,1.61
82404,0.20,-3.57,11.65,0.98,8.73,1.72
82439,4.08,-3.43,12.00,0.91,8.73,1.81
82474,6.19,-2.78,12.81,0.89,8.73,1.77
82509,9.14,-0.63,14.59,0.95,8.73,1.70
82544,11.10,-1.76,17.39,1.07,8.73,1.68
82579,12.09,-3.02,20.37,1.07,8.73,1.71
82614,12.28,-4.87,23.41,1.00,8.73,1.72
82650,11.11,-6.31,25.95,0.92,8.73,1.69
82684,9.36,-5.90,28.25,0.83,8.73,1.57
82719,6.79,-5.64,30.12,0.79,8.73,1.49
82754,3.81,-5.42,30.95,0.80,8.73,1.43
82789,0.79,-5.90,30.75,0.82,8.73,1.44
82824,-1.96,-4.63,31.58,0.78,8.73,1.51
82859,-4.00,-4.54,29.71,0.65,8.73,1.57
82894,-4.74,-2.83,26.12,0.47,8.73,1.57
82929,-5.79,-2.04,22.70,0.25,8.73,1.45
82964,-6.94,-1.02,20.45,0.14,8.73,1.22
82999,-6.78,0.58,18.23,0.25,8.73,1.12
83034,-5.86,1.45,15.85,0.44,8.73,1.12
83068,-2.03,1.70,13.84,0.63,8.73,1.19
83103,0.54,-0.05,13.26,0.73,8.73,1.33
83138,4.65,-1.15,13.42,0.76,8.73,1.47
83173,7.88,-2.66,14.50,0.68,8.73,1.58
83208,10.74,-4.20,15.95,0.55,8.73,1.61
83243,11.64,-4.71,17.60,0.45,8.73,1.56
83278,11.89,-4.55,20.00,0.45,8.73,1.44
83312,11.75,-3.34,23.27,0.50,8.73,1.36
83347,11.12,-4.27,26.42,0.62,8.73,1.32
83387,8.99,-4.21,29.10,0.76,8.73,1.25
83422,6.34,-5.59,30.67,0.84,8.73,1.27
83457,3.33,-7.13,31.70,0.94,8.73,1.32
83492,0.15,-6.63,31.71,1.03,8.73,1.40
83527,-2.42,-4.52,31.28,1.03,8.73,1.46
83562,-4.41,-4.47,28.84,0.99,8.73,1.54
83597,-5.55,-4.50,25.39,0.97,8.73,1.58
83632,-6.58,-3.37,22.29,0.94,8.73,1.58
83667,-6.93,-3.76,19.44,0.88,8.73,1.55
83702,-5.37,-2.66,16.47,0.88,8.73,1.54
83737,-3.79,-2.04,13.96,0.90,8.73,1.56
83772,-0.90,-0.81,12.34,0.91,8.73,1.52
83807,0.80,-0.80,11.94,0.91,8.73,1.52
83841,5.67,-0.45,12.65,0.98,8.73,1.49
83876,8.00,-0.49,13.41,1.08,8.73,1.48
83911,10.34,-1.54,15.91,1.18,8.73,1.52
83946,11.54,-2.53,18.88,1.18,8.73,1.62
83981,12.31,-3.51,21.16,1.14,8.73,1.71
84016,11.44,-5.26,24.05,1.06,8.73,1.78
84051,10.75,-6.21,26.79,0.95,8.73,1.85
84086,8.34,-5.81,29.67,0.87,8.73,1.86
84120,5.51,-6.28,31.28,0.82,8.73,1.89
84155,2.93,-6.36,31.75,0.77,8.73,2.00
84190,-0.17,-5.23,31.93,0.64,8.73,2.02
84225,-2.94,-4.82,30.31,0.51,8.73,1.93
84260,-5.89,-4.62,29.53,0.50,8.73,1.82
84295,-7.23,-4.58,27.22,0.56,8.73,1.75
84330,-7.52,-3.64,23.87,0.64,8.73,1.72
84365,-6.32,-3.50,19.88,0.71,8.73,1.69
84400,-4.43,-4.44,16.36,0.79,8.73,1.74
84435,-2.81,-5.81,13.73,0.78,8.73,1.77
84470,0.06,-4.40,12.30,0.73,8.73,1.77
84505,1.28,-2.44,12.34,0.67,8.73,1.79
84540,3.97,-2.44,13.34,0.63,8.73,1.74
84575,7.53,-2.28,14.94,0.59,8.73,1.71
84610,10.31,-2.19,17.09,0.72,8.73,1.62
84645,12.00,-3.98,19.49,0.76,8.73,1.60
84680,12.68,-5.74,22.76,0.73,8.73,1.56
84715,11.68,-5.55,26.13,0.73,8.73,1.54
84750,10.64,-4.44,28.50,0.75,8.73,1.48
84785,7.95,-4.76,30.43,0.83,8.73,1.47
84820,4.82,-4.87,31.67,0.88,8.73,1.53
84855,1.47,-6.24,31.51,0.92,8.73,1.62
84889,-1.53,-6.73,31.24,0.86,8.73,1.68
84924,-4.50,-5.43,29.74,0.82,8.73,1.69
84959,-5.78,-4.54,26.95,0.82,8.73,1.68
84994,-6.08,-3.82,23.63,0.84,8.73,1.67
85029,-5.69,-4.01,19.23,0.91,8.73,1.68
85064,-6.74,-4.38,16.73,0.90,8.73,1.69
85099,-4.93,-4.56,14.58,0.89,8.73,1.73
85134,-2.60,-4.87,13.23,0.85,8.73,1.65
85169,0.98,-3.60,12.63,0.85,8.73,1.68
85204,4.11,-2.45,13.41,0.87,8.73,1.64
85239,6.37,-1.80,13.51,0.94,8.73,1.57
85274,9.96,-1.62,15.08,0.97,8.73,1.63
85309,11.48,-3.51,17.56,0.95,8.73,1.69
85344,12.17,-4.38,20.52,0.90,8.73,1.68
85379,12.28,-5.27,23.76,0.90,8.73,1.69
85419,10.47,-5.24,27.32,0.95,8.73,1.70
85454,8.60,-5.48,29.54,0.96,8.73,1.70
85489,6.10,-6.37,30.78,0.92,8.73,1.75
85524,3.20,-7.11,32.04,0.88,8.73,1.69
85559,0.08,-5.89,32.35,0.92,8.73,1.60
85594,-2.66,-4.47,31.52,1.02,8.73,1.53
85629,-4.69,-4.11,28.60,1.09,8.73,1.56
85664,-5.92,-3.68,25.49,1.12,8.73,1.62
85699,-6.90,-4.26,22.21,1.02,8.73,1.67
85734,-7.65,-3.73,19.71,0.93,8.73,1.67
85769,-6.25,-2.36,17.12,0.88,8.73,1.69
85804,-4.99,-0.53,15.01,0.83,8.73,1.65
85840,-1.95,0.54,13.38,0.89,8.73,1.66
85874,2.11,-1.99,13.32,0.91,8.73,1.72
85909,6.36,-4.85,13.52,0.87,8.73,1.78
85944,8.03,-4.78,14.11,0.77,8.73,1.86
85979,10.62,-4.97,16.74,0.72,8.73,1.84
86014,12.42,-4.13,20.02,0.74,8.73,1.78
86049,12.40,-3.84,22.83,0.84,8.73,1.75
86084,11.92,-3.96,25.98,0.96,8.73,1.86
86119,9.64,-5.68,28.02,0.99,8.73,1.99
86154,7.50,-7.79,29.26,0.96,8.73,2.07
86189,4.60,-8.44,30.36,0.86,8.73,2.11
86224,2.16,-7.29,30.84,0.73,8.73,2.06
86259,-0.72,-5.37,31.08,0.67,8.73,1.93
86294,-3.69,-3.94,30.69,0.72,8.73,1.81
86330,-5.26,-2.81,28.18,0.81,8.73,1.76
86365,-6.17,-4.11,24.27,0.85,8.73,1.76
86399,-7.59,-3.85,21.57,0.91,8.73,1.76
86435,-7.51,-2.88,18.86,0.91,8.73,1.80
86469,-4.30,-2.26,16.16,0.89,8.73,1.80
86504,-3.57,0.21,14.45,0.86,8.73,1.71
86539,-0.60,0.92,13.26,0.88,8.73,1.58
86574,2.94,0.85,13.42,0.96,8.73,1.43
86609,7.26,-0.49,13.76,1.06,8.73,1.40
86644,10.04,-2.77,14.88,1.13,8.73,1.45
86679,11.71,-5.44,16.63,1.04,8.73,1.53
86714,12.25,-6.22,19.43,0.92,8.73,1.55
86749,12.46,-5.65,22.03,0.78,8.73,1.49
86784,11.80,-5.72,24.76,0.77,8.73,1.43
86819,10.46,-4.28,27.12,0.78,8.73,1.37
86854,7.39,-4.08,29.10,0.86,8.73,1.34
86889,4.64,-3.95,30.86,0.93,8.73,1.38
86924,1.95,-3.37,31.57,1.01,8.73,1.38
86959,-1.18,-4.70,30.58,1.11,8.73,1.45
86994,-3.73,-4.42,28.46,1.15,8.73,1.53
87029,-5.82,-4.94,26.02,1.20,8.73,1.61
87064,-6.83,-4.96,23.46,1.18,8.73,1.71
87099,-7.86,-4.04,21.42,1.16,8.73,1.81
87134,-7.25,-3.23,18.66,1.10,8.73,1.88
87169,-3.69,-2.11,15.88,1.06,8.73,1.94
87204,-2.35,-3.31,13.35,0.99,8.73,1.91
87239,-0.15,-3.61,12.26,0.91,8.73,1.85
87274,3.32,-5.43,12.69,0.84,8.73,1.84
87309,6.65,-4.53,13.69,0.75,8.73,1.87
87344,9.42,-3.20,15.04,0.70,8.73,1.81
87379,11.82,-3.88,17.46,0.67,8.73,1.74
87414,13.18,-3.17,20.54,0.66,8.73,1.66
87454,12.04,-4.19,23.39,0.66,8.73,1.60
87489,10.94,-4.79,25.84,0.70,8.73,1.57
87524,9.49,-3.54,28.27,0.76,8.73,1.55
87559,7.59,-3.87,30.20,0.80,8.73,1.61
87594,4.74,-3.62,31.89,0.82,8.73,1.58
87629,1.07,-4.08,31.94,0.83,8.73,1.54
87664,-2.49,-4.40,31.04,0.83,8.73,1.51
87699,-5.68,-3.96,28.95,0.86,8.73,1.49
87734,-6.41,-3.25,25.39,0.86,8.73,1.49
87769,-6.04,-2.52,21.73,0.82,8.73,1.49
87804,-6.39,-1.50,19.13,0.79,8.73,1.45
87839,-5.91,-0.01,17.24,0.84,8.73,1.47
87874,-3.52,-0.22,14.78,0.89,8.73,1.49
87909,-1.47,0.86,12.90,0.94,8.73,1.50
87944,0.96,-1.79,11.35,0.97,8.73,1.61
87979,4.33,-2.84,11.49,0.97,8.73,1.66
88014,8.07,-4.78,12.31,0.91,8.73,1.73
88049,10.25,-4.92,13.99,0.79,8.73,1.79
88084,11.58,-4.81,17.26,0.78,8.73,1.78
88119,12.24,-4.51,20.20,0.83,8.72,1.76
88154,12.00,-3.60,22.59,0.92,8.68,1.82
88189,10.75,-5.59,25.14,0.97,8.67,1.93
88224,9.46,-4.49,27.78,0.93,8.68,2.03
88259,6.95,-5.29,30.11,0.84,8.73,2.15
88294,3.61,-5.75,31.37,0.75,8.73,2.13
