timestamp,accelX,accelY,accelZ,gyroX,gyroY,gyroZ
246040,5.87,-6.57,28.13,0.86,8.29,1.82
246075,3.21,-7.21,28.65,0.76,8.27,1.81
246110,-0.39,-6.12,28.96,0.73,8.29,1.77
246145,-3.67,-4.43,27.84,0.74,8.37,1.65
246180,-5.13,-3.46,25.38,0.72,8.41,1.60
246215,-6.83,-3.88,23.79,0.64,8.40,1.58
246250,-7.20,-5.17,20.68,0.68,8.42,1.56
246285,-8.67,-2.71,19.14,0.64,8.50,1.51
246320,-7.24,-3.90,16.38,0.77,8.62,1.61
246355,-6.15,-3.04,15.06,0.71,8.73,1.54
246390,-3.75,-1.99,13.95,0.74,8.73,1.50
246425,-1.83,-4.14,13.08,0.74,8.73,1.59
246460,4.15,-7.54,13.19,0.64,8.73,1.79
246495,7.52,-5.53,14.08,0.53,8.73,1.83
246530,10.03,-3.33,17.27,0.58,8.73,1.69
246565,12.63,-3.26,21.40,0.72,8.73,1.61
246600,12.93,-3.76,23.95,0.85,8.73,1.56
246635,11.52,-2.50,25.18,0.99,8.73,1.60
246670,10.58,-5.80,27.06,1.14,8.73,1.82
246705,8.38,-5.74,29.02,1.02,8.73,1.79
246740,5.72,-4.77,30.30,0.93,8.73,1.84
246775,3.14,-7.03,32.50,0.91,8.73,1.99
246810,0.29,-7.27,34.48,0.86,8.73,2.09
246845,-2.70,-6.10,32.31,0.79,8.73,2.03
246880,-4.64,-4.36,30.06,0.90,8.73,1.93
246915,-6.22,-4.56,25.96,1.01,8.73,1.93
246950,-6.42,-4.48,21.90,1.15,8.73,1.99
246985,-5.89,-5.96,19.13,1.14,8.73,2.11
247021,-5.46,-2.83,17.48,1.04,8.73,2.17
247055,-2.77,-2.62,15.66,0.96,8.73,2.15
247090,1.70,-4.20,14.45,0.90,8.73,2.01
247125,4.84,-4.33,14.56,0.85,8.73,1.87
247160,7.41,-2.41,15.05,0.86,8.73,1.73
247194,10.07,-1.32,16.53,0.92,8.73,1.66
247229,11.84,-4.70,18.89,0.94,8.73,1.68
247264,12.55,-5.01,21.25,0.83,8.73,1.67
247299,11.87,-5.42,24.25,0.77,8.73,1.62
247334,11.18,-4.84,28.15,0.74,8.73,1.55
247370,9.32,-3.96,30.93,0.77,8.73,1.41
247404,6.58,-5.57,32.78,0.85,8.73,1.37
247439,3.50,-5.50,32.77,0.92,8.73,1.28
247474,0.30,-5.73,33.21,1.03,8.73,1.34
247509,-2.61,-4.23,33.36,1.13,8.73,1.40
247544,-5.38,-4.56,31.73,1.18,8.73,1.56
247579,-5.98,-5.03,27.50,1.19,8.73,1.66
247614,-6.41,-5.12,23.65,1.08,8.73,1.69
247649,-6.86,-5.00,20.52,0.94,8.73,1.68
247684,-4.47,1.04,18.50,0.85,8.73,1.63
247719,-1.37,-1.11,16.05,0.93,8.73,1.55
247754,0.28,-1.81,14.85,0.96,8.73,1.50
247789,2.79,-1.19,15.45,1.03,8.73,1.51
247824,6.55,-0.85,16.64,1.09,8.73,1.52
247864,10.64,-2.98,18.48,1.14,8.73,1.58
247899,13.55,-2.58,22.33,1.18,8.73,1.60
247934,13.57,-4.64,24.27,1.13,8.73,1.63
247969,13.04,-5.96,26.38,1.00,8.73,1.60
248004,10.88,-5.78,28.87,0.88,8.73,1.44
248039,8.28,-4.47,31.28,0.90,8.73,1.22
248074,5.54,-4.75,33.15,0.98,8.73,1.11
248109,2.46,-5.95,33.18,1.15,8.73,1.16
248144,0.00,-6.30,33.23,1.27,8.73,1.35
248179,-2.41,-4.47,33.36,1.34,8.73,1.53
248214,-5.40,-5.48,30.80,1.33,8.73,1.69
248249,-7.32,-4.88,26.89,1.27,8.73,1.80
248284,-6.48,-4.69,22.78,1.29,8.73,1.89
248320,-5.26,-4.06,19.52,1.23,8.73,1.97
248354,-3.23,-5.40,15.78,1.18,8.73,2.17
248390,-0.50,-4.78,14.53,1.10,8.73,2.26
248424,1.66,-5.32,14.45,0.93,8.73,2.23
248459,4.36,-3.57,14.48,0.86,8.73,2.13
248494,7.47,-0.96,15.63,0.87,8.73,2.00
248529,10.91,-4.79,17.40,0.91,8.73,1.98
248564,11.97,-5.75,21.45,0.80,8.73,1.94
248599,11.51,-5.41,24.72,0.73,8.73,1.86
248634,11.85,-5.42,27.83,0.78,8.73,1.83
248669,11.15,-6.57,30.49,0.73,8.73,1.79
248704,8.66,-5.43,33.43,0.75,8.73,1.69
248738,4.82,-4.35,34.71,0.82,8.73,1.56
248772,1.15,-4.20,34.36,0.92,8.73,1.51
248807,-1.42,-4.35,33.69,0.99,8.73,1.44
248843,-2.82,-4.07,31.23,1.10,8.73,1.43
248877,-4.82,-3.23,28.70,1.24,8.73,1.47
248912,-6.13,-4.91,24.95,1.15,8.73,1.53
248947,-7.98,-1.80,22.69,0.96,8.73,1.42
248982,-6.98,-3.02,19.81,0.92,8.73,1.36
249017,-4.04,0.96,17.55,0.89,8.73,1.18
249052,0.45,4.33,16.36,1.05,8.73,1.03
249087,3.84,2.04,16.49,1.26,8.73,1.01
249122,6.05,-0.64,15.20,1.43,8.73,1.10
249157,8.56,-0.99,16.51,1.46,8.73,1.34
249192,11.10,-3.28,18.30,1.42,8.73,1.53
249227,12.44,-6.36,20.80,1.28,8.73,1.70
249262,13.26,-5.09,24.45,1.10,8.73,1.73
249297,11.61,-7.17,28.20,1.11,8.73,1.79
249333,9.41,-6.90,31.08,1.09,8.73,1.78
249368,6.23,-5.88,33.37,1.03,8.73,1.83
249402,3.92,-6.23,34.34,1.00,8.73,1.86
249437,0.99,-6.49,34.47,1.00,8.73,1.90
249472,-1.85,-6.92,32.96,0.95,8.73,1.91
249507,-4.71,-5.81,31.48,0.96,8.73,1.91
249542,-6.41,-3.73,28.32,1.09,8.73,1.92
249577,-6.35,-4.31,23.49,1.15,8.73,2.00
249612,-5.77,-4.08,20.24,1.12,8.73,2.02
249648,-3.88,-7.09,17.21,1.01,8.73,2.05
249682,-3.06,-6.56,15.13,0.89,8.73,2.00
249718,-1.44,-5.14,14.05,0.78,8.73,1.94
249753,2.54,-3.73,14.94,0.71,8.73,1.89
249787,5.43,-3.87,14.43,0.69,8.73,1.86
249823,9.20,-6.25,16.10,0.51,8.73,1.92
249857,11.77,-5.08,19.42,0.40,8.73,1.81
249897,12.98,-5.04,23.86,0.28,8.73,1.60
249932,12.70,-4.83,26.74,0.35,8.73,1.44
249967,11.70,-3.84,29.18,0.50,8.73,1.40
250002,9.61,-3.57,31.98,0.65,8.73,1.43
250037,6.50,-3.81,33.61,0.77,8.73,1.47
250072,2.14,-5.03,34.46,0.91,8.73,1.51
250108,-0.62,-5.56,34.36,0.98,8.73,1.53
250142,-2.56,-3.22,33.05,1.12,8.73,1.51
250177,-4.45,-3.28,29.36,1.33,8.73,1.51
250212,-6.47,-4.87,25.92,1.37,8.73,1.67
250247,-6.42,-4.10,22.54,1.35,8.73,1.77
250282,-7.45,-5.20,19.39,1.29,8.73,1.84
250318,-4.30,-5.00,17.14,1.19,8.73,1.90
250352,-0.94,-3.47,16.32,1.07,8.73,1.83
250387,1.27,1.26,15.38,1.09,8.73,1.65
250422,4.92,0.28,16.60,1.24,8.73,1.61
250457,6.99,0.93,16.81,1.34,8.73,1.61
250492,11.56,-1.55,18.95,1.57,8.73,1.67
250527,12.99,-5.95,20.87,1.48,8.73,1.82
250562,13.23,-4.91,24.67,1.38,8.73,1.94
250597,11.26,-7.54,26.89,1.24,8.73,1.96
250632,9.64,-7.69,29.64,1.04,8.73,1.88
250667,7.22,-8.22,31.12,0.93,8.73,1.79
250702,4.70,-6.56,33.27,0.90,8.73,1.68
250737,2.15,-5.16,34.52,0.95,8.73,1.65
250772,-1.16,-5.67,33.53,0.97,8.73,1.67
250806,-3.76,-5.07,31.80,1.05,8.73,1.65
250842,-5.54,-4.63,28.77,1.18,8.73,1.65
250876,-6.34,-4.73,25.52,1.22,8.73,1.74
250911,-7.62,-4.84,22.69,1.22,8.73,1.82
250946,-7.38,-3.71,20.39,1.09,8.73,1.87
250981,-4.82,-1.95,17.94,1.06,8.73,1.87
251016,-1.09,-4.16,15.83,1.02,8.73,1.86
251051,1.37,-2.38,15.33,0.96,8.73,1.85
251086,5.44,-3.65,15.70,0.97,8.73,1.86
251121,8.48,-5.16,16.67,0.89,8.73,1.97
251156,11.44,-3.46,20.08,0.89,8.73,1.93
251191,12.02,-4.38,22.43,0.97,8.73,1.92
251226,12.47,-5.65,24.76,0.98,8.73,1.95
251261,12.32,-5.40,28.62,1.02,8.73,2.07
251296,10.34,-6.32,31.34,1.02,8.73,2.15
251331,6.74,-7.81,33.20,0.97,8.73,2.28
251366,3.81,-7.07,34.06,0.78,8.73,2.28
251401,0.85,-6.99,34.03,0.68,8.73,2.23
251436,-1.54,-6.49,33.02,0.59,8.73,2.10
251471,-4.64,-4.56,31.63,0.59,8.73,1.95
251506,-7.42,-2.52,28.67,0.72,8.73,1.89
251541,-5.55,-3.77,25.02,0.72,8.73,1.83
251576,-5.81,-2.67,22.57,0.79,8.73,1.82
251611,-5.69,-4.76,19.05,0.78,8.73,1.77
251646,-3.48,-2.31,16.97,0.72,8.73,1.72
251681,0.94,-2.86,16.33,0.76,8.73,1.74
251716,3.44,-3.71,15.51,0.71,8.73,1.87
251751,6.26,-3.75,16.32,0.65,8.73,1.88
251786,9.15,-6.09,18.21,0.63,8.73,1.90
251822,11.74,-5.63,22.68,0.55,8.73,1.84
251856,13.23,-3.58,26.02,0.66,8.73,1.74
251891,12.53,-5.67,28.00,0.80,8.73,1.77
251931,9.82,-7.01,30.70,0.88,8.73,1.73
251966,7.38,-7.56,32.51,0.83,8.73,1.67
252001,5.25,-5.10,34.96,0.84,8.73,1.61
252036,2.61,-5.38,35.31,0.96,8.73,1.54
252071,-0.80,-5.03,33.84,1.09,8.73,1.46
252106,-3.88,-5.96,31.30,1.14,8.73,1.52
252141,-6.76,-5.27,30.33,1.09,8.73,1.66
252176,-6.85,-4.82,27.51,0.89,8.73,1.66
252211,-6.25,-3.44,23.86,0.74,8.73,1.49
252246,-5.08,-1.47,20.28,0.65,8.73,1.36
252281,-4.15,1.48,18.27,0.76,8.73,1.19
252316,-0.45,0.80,16.76,0.94,8.73,1.17
252351,2.97,-0.66,16.69,1.01,8.73,1.32
252386,6.29,-4.39,15.72,1.08,8.73,1.53
252421,10.01,-4.89,17.51,0.91,8.73,1.72
252456,11.23,-4.70,21.83,0.87,8.73,1.74
252491,11.09,-4.21,23.93,0.86,8.73,1.72
252526,12.34,-5.49,26.32,0.89,8.73,1.72
252561,11.88,-5.54,30.25,0.95,8.73,1.77
252596,7.86,-7.42,32.36,0.96,8.73,1.87
252631,5.64,-7.19,35.22,0.91,8.73,1.99
252666,3.64,-7.98,35.30,0.86,8.73,2.01
252701,-0.61,-6.75,35.34,0.72,8.73,2.04
252735,-3.46,-5.13,33.29,0.70,8.73,1.96
252770,-5.71,-6.22,31.33,0.70,8.73,1.92
252805,-5.83,-5.34,27.75,0.47,8.73,1.82
252841,-6.41,-2.84,24.62,0.49,8.73,1.70
252875,-7.11,-1.91,21.78,0.55,8.73,1.69
252910,-3.53,-0.13,19.60,0.68,8.73,1.66
252945,-1.47,-4.11,16.44,0.74,8.73,1.83
252980,2.72,-4.59,16.73,0.70,8.73,1.90
253015,7.47,-5.79,17.03,0.60,8.73,1.99
253050,9.04,-3.92,17.16,0.44,8.73,1.98
253085,10.66,-6.20,20.35,0.46,8.73,1.87
253120,11.16,-5.33,23.50,0.44,8.73,1.71
253155,13.09,-4.07,26.58,0.56,8.73,1.60
253190,11.24,-6.08,30.02,0.71,8.73,1.61
253225,9.69,-4.46,33.23,0.73,8.73,1.62
253260,7.63,-5.59,35.34,0.85,8.73,1.71
253295,3.19,-6.54,35.77,0.83,8.73,1.72
253330,-0.09,-7.43,34.74,0.85,8.73,1.75
253365,-2.90,-5.52,33.71,0.78,8.73,1.78
253400,-5.09,-4.71,31.64,0.72,8.73,1.72
253435,-6.85,-2.88,29.20,0.73,8.73,1.67
253470,-7.26,-3.06,25.91,0.79,8.73,1.67
253505,-4.88,-1.43,22.00,0.84,8.73,1.62
253540,-2.23,-3.98,17.88,0.93,8.73,1.68
253575,-0.25,-2.38,16.63,0.92,8.73,1.72
253610,2.19,-3.48,15.62,0.97,8.73,1.81
253645,4.28,-3.77,15.40,0.95,8.73,1.79
253680,6.18,-2.60,17.35,1.00,8.73,1.77
253714,9.30,-1.83,19.25,1.09,8.73,1.80
253749,12.62,-3.94,22.66,1.26,8.73,1.90
253784,12.73,-4.91,26.03,1.36,8.73,2.00
253820,11.77,-6.57,29.49,1.38,8.73,2.22
253854,11.08,-8.11,31.91,1.23,8.73,2.35
253889,8.77,-8.58,33.59,1.09,8.73,2.31
253924,4.31,-8.82,34.32,0.92,8.73,2.20
253964,1.41,-7.74,35.36,0.81,8.73,2.06
253999,-2.42,-5.95,33.73,0.83,8.73,1.95
254034,-5.24,-4.46,31.53,0.91,8.73,1.86
254069,-5.77,-5.45,28.30,0.95,8.73,1.83
254104,-5.50,-5.89,24.80,0.87,8.73,1.79
254139,-4.99,-3.64,21.67,0.81,8.73,1.71
254175,-4.63,-3.35,18.27,0.81,8.73,1.63
254209,-3.15,-0.94,15.97,0.82,8.73,1.47
254245,0.82,-0.16,14.75,0.94,8.73,1.43
254279,1.20,-0.82,15.05,1.00,8.73,1.37
254315,7.77,-1.75,18.27,1.16,8.73,1.40
254349,11.37,-3.24,18.03,1.18,8.73,1.47
254385,12.87,-4.17,20.54,1.27,8.73,1.57
254419,11.97,-5.04,24.36,1.16,8.73,1.66
254454,10.40,-5.72,28.18,0.99,8.73,1.63
254489,10.62,-6.78,30.22,0.91,8.73,1.59
254524,9.86,-5.50,32.18,0.95,8.73,1.55
254559,5.52,-7.59,33.13,1.01,8.73,1.61
254594,1.62,-7.07,33.68,1.01,8.73,1.65
254629,-1.32,-6.81,32.86,1.01,8.73,1.75
254664,-3.68,-6.75,30.93,0.85,8.73,1.85
254699,-5.00,-5.90,28.53,0.74,8.73,1.87
254734,-5.01,-4.40,25.25,0.63,8.73,1.79
254769,-6.47,-3.52,22.72,0.61,8.73,1.70
254804,-7.82,-3.61,19.68,0.72,8.73,1.66
254839,-3.51,-3.98,16.81,0.77,8.73,1.72
254874,-2.27,-3.42,15.21,0.80,8.73,1.78
254909,0.56,-3.23,13.88,0.85,8.73,1.83
254943,4.84,-3.96,14.31,0.83,8.73,1.85
254978,8.89,-2.38,15.11,0.91,8.73,1.66
255013,10.73,-0.43,17.54,1.08,8.73,1.60
255048,11.65,-2.11,20.64,1.21,8.73,1.62
255083,12.10,-3.43,23.23,1.29,8.73,1.70
255118,11.75,-6.63,25.97,1.21,8.73,1.80
255153,11.07,-6.11,29.10,1.06,8.73,1.75
255188,9.53,-5.78,31.53,1.01,8.73,1.64
255223,6.45,-6.39,32.40,1.02,8.73,1.54
255258,2.80,-7.09,32.02,1.07,8.73,1.48
255293,-0.52,-6.13,31.42,1.13,8.73,1.47
255329,-3.21,-4.45,30.21,1.19,8.73,1.50
255363,-4.88,-6.40,27.91,1.13,8.73,1.64
255398,-6.39,-5.81,24.53,1.06,8.73,1.71
255434,-8.22,-4.83,22.37,1.01,8.73,1.78
255468,-6.27,-3.13,19.45,0.88,8.73,1.77
255503,-4.71,-0.73,17.25,0.88,8.73,1.83
255538,-2.50,-1.43,14.74,0.90,8.73,1.85
255573,1.09,-4.88,13.59,0.85,8.73,1.90
255608,4.82,-6.25,13.69,0.75,8.73,1.89
255643,7.32,-4.21,14.12,0.68,8.73,1.86
255678,9.94,-3.21,15.65,0.66,8.73,1.79
255713,11.13,-2.36,18.49,0.75,8.73,1.72
255748,12.15,-2.44,21.48,0.88,8.73,1.69
255783,12.23,-4.41,23.71,0.94,8.73,1.71
255818,11.68,-5.47,26.71,0.91,8.73,1.75
255853,9.96,-3.73,29.80,0.85,8.73,1.69
255888,7.60,-4.49,31.47,0.84,8.73,1.65
255924,4.35,-5.70,32.40,0.86,8.73,1.63
255958,0.62,-6.27,32.12,0.82,8.73,1.67
255998,-2.03,-6.00,30.10,0.70,8.73,1.73
256033,-5.88,-4.22,30.56,0.60,8.73,1.77
256068,-6.34,-3.99,26.46,0.45,8.73,1.69
256103,-6.48,-1.61,23.53,0.43,8.73,1.59
256138,-6.71,0.17,20.93,0.48,8.73,1.51
256173,-4.97,0.62,18.22,0.63,8.73,1.51
256208,-2.73,-2.50,14.75,0.75,8.73,1.60
256243,-0.76,-2.76,13.03,0.70,8.73,1.59
256278,2.46,-3.36,13.55,0.65,8.73,1.65
256314,5.43,-2.78,13.60,0.61,8.73,1.66
256348,8.47,-3.28,14.29,0.57,8.73,1.63
256384,10.60,-4.13,17.17,0.50,8.73,1.60
256418,11.60,-4.43,19.53,0.37,8.73,1.49
256453,12.68,-5.71,22.67,0.29,8.73,1.32
256488,12.20,-4.97,26.06,0.27,8.73,1.10
256523,10.84,-2.34,28.67,0.36,8.73,0.87
256558,7.95,-1.86,31.61,0.67,8.73,0.91
256593,4.41,-3.10,32.44,0.88,8.73,1.11
256628,0.71,-5.43,32.57,1.00,8.73,1.35
256663,-1.69,-4.32,33.20,0.98,8.73,1.50
256698,-3.40,-3.41,31.96,1.05,8.73,1.54
256732,-4.43,-3.36,28.80,1.14,8.73,1.61
256767,-5.63,-2.79,25.17,1.21,8.73,1.67
256802,-7.62,-3.65,21.78,1.20,8.73,1.75
256837,-6.32,-2.11,18.88,1.17,8.73,1.83
256872,-4.02,-1.45,16.10,1.13,8.73,1.83
256907,-1.10,-2.63,13.47,1.07,8.73,1.73
256942,2.39,-2.42,13.27,1.03,8.73,1.66
256977,6.17,-1.25,14.07,1.03,8.73,1.64
257012,8.05,-1.54,14.59,1.04,8.73,1.63
257047,10.27,-1.85,16.35,1.02,8.73,1.69
257082,12.17,-3.87,19.36,0.95,8.73,1.69
257117,13.12,-5.12,21.61,0.86,8.73,1.68
257152,13.04,-5.21,23.89,0.75,8.73,1.65
257187,12.59,-3.38,28.64,0.70,8.73,1.60
257222,8.65,-4.74,30.50,0.74,8.73,1.53
257257,5.63,-3.81,32.18,0.80,8.73,1.58
257292,1.87,-5.52,32.69,0.81,8.73,1.66
257327,-1.12,-5.20,32.40,0.73,8.73,1.70
257362,-3.19,-4.50,30.12,0.69,8.73,1.67
257397,-4.84,-3.24,28.15,0.67,8.73,1.66
257432,-6.65,-2.04,25.76,0.75,8.73,1.60
257467,-6.82,-3.19,22.33,0.80,8.73,1.60
257502,-7.04,-3.18,19.74,0.87,8.73,1.66
257537,-5.67,-3.47,16.52,0.90,8.73,1.80
257572,-2.96,-1.31,14.37,0.90,8.73,1.90
257607,1.19,-2.84,13.41,0.88,8.73,2.03
257642,4.52,-3.82,13.67,0.74,8.73,2.11
257677,6.60,-3.36,13.76,0.62,8.73,2.05
257712,7.99,-2.82,14.53,0.61,8.73,1.96
257747,9.41,-2.55,17.43,0.70,8.73,1.86
257782,10.44,-2.27,21.54,0.82,8.73,1.82
257818,12.38,-3.60,24.80,0.98,8.73,1.86
257852,12.24,-5.88,27.92,1.00,8.73,1.96
257887,10.44,-5.61,31.05,0.92,8.73,1.95
257922,7.44,-4.17,33.19,0.88,8.73,1.91
257957,3.41,-6.04,33.30,0.87,8.73,1.81
257992,0.08,-5.58,33.35,0.88,8.73,1.69
258032,-3.36,-4.01,32.68,1.01,8.73,1.57
258067,-5.42,-5.68,29.27,1.11,8.73,1.60
258102,-6.61,-4.56,26.48,1.14,8.73,1.64
258137,-7.00,-4.79,23.38,1.17,8.73,1.70
258172,-6.36,-4.74,19.83,1.07,8.73,1.72
258207,-3.41,-2.62,16.92,0.95,8.73,1.68
258243,-3.83,0.77,15.14,0.91,8.73,1.53
258277,1.86,1.47,15.95,0.98,8.73,1.48
258313,5.33,-1.80,15.10,1.08,8.73,1.50
258347,6.22,-1.84,13.93,1.13,8.73,1.56
258382,8.46,-1.99,17.16,1.16,8.73,1.66
258417,10.53,-1.69,19.80,1.28,8.73,1.75
258452,11.97,-2.78,22.68,1.31,8.73,1.85
258487,12.68,-6.93,25.85,1.23,8.73,1.97
258522,11.56,-6.03,28.90,1.13,8.73,1.98
258557,9.41,-5.99,31.49,1.05,8.73,1.93
258592,5.84,-7.22,32.51,0.95,8.73,1.89
258627,2.41,-6.85,33.35,0.95,8.73,1.79
258662,-0.38,-5.45,33.72,1.06,8.73,1.71
258697,-2.83,-5.74,31.85,1.14,8.73,1.70
258732,-5.15,-5.48,29.74,1.18,8.73,1.75
258767,-6.89,-4.57,27.51,1.20,8.73,1.80
258802,-6.33,-6.05,23.15,1.21,8.73,1.87
258837,-6.80,-6.11,19.72,1.20,8.73,2.01
258872,-4.92,-3.87,17.76,1.07,8.73,2.10
258907,-2.33,-4.12,16.17,1.03,8.73,2.11
258942,0.70,-5.60,14.64,0.91,8.73,2.06
258976,3.96,-4.36,14.70,0.85,8.73,1.98
259011,6.55,-2.92,16.21,0.87,8.73,1.85
259046,9.61,-3.49,17.54,0.97,8.73,1.77
259081,11.54,-4.69,20.51,0.98,8.73,1.80
259115,12.36,-5.09,24.13,0.94,8.73,1.80
259150,12.29,-5.98,27.14,0.92,8.73,1.79
259185,11.84,-6.39,30.35,0.83,8.73,1.80
259220,9.14,-4.17,32.54,0.83,8.73,1.69
259255,6.16,-4.66,33.55,0.86,8.73,1.63
259290,2.62,-6.39,33.01,0.92,8.73,1.63
259326,-0.17,-6.82,31.99,0.92,8.73,1.65
259360,-2.84,-5.00,31.29,0.89,8.73,1.66
259395,-5.75,-3.73,29.62,0.89,8.73,1.68
259430,-7.21,-4.87,26.06,0.82,8.73,1.68
259465,-6.99,-2.61,24.55,0.82,8.73,1.63
259500,-5.55,-2.94,19.30,0.87,8.73,1.60
259535,-4.88,-2.44,17.84,0.89,8.73,1.52
259570,-0.17,-0.71,16.96,0.89,8.73,1.43
259605,3.67,1.25,15.73,0.97,8.73,1.32
259639,6.17,0.99,14.63,1.12,8.73,1.31
259674,8.01,-3.12,14.81,1.16,8.73,1.46
259709,9.36,-1.89,17.19,1.14,8.73,1.58
259744,11.19,-5.15,20.44,1.09,8.73,1.69
259779,12.16,-6.50,23.92,0.99,8.73,1.75
259815,12.47,-6.25,27.28,0.87,8.73,1.72
259849,11.04,-6.21,29.88,0.84,8.73,1.62
259884,8.72,-6.88,31.51,0.87,8.73,1.53
259919,4.77,-6.74,32.31,0.88,8.73,1.55
259954,1.31,-8.30,31.65,0.90,8.73,1.63
259990,-1.03,-4.38,33.61,0.93,8.73,1.68
260024,-4.02,-4.79,31.95,0.93,8.73,1.69
260064,-6.13,-4.09,28.61,0.99,8.73,1.69
260099,-6.64,-3.93,24.96,0.93,8.73,1.70
260134,-6.46,-2.62,22.37,0.91,8.73,1.68
260169,-6.31,-1.98,20.41,0.90,8.73,1.65
260204,-4.22,-3.39,17.09,0.94,8.73,1.62
260238,-0.62,-1.86,15.31,0.95,8.73,1.51
260272,1.70,-1.33,15.18,1.00,8.73,1.45
260307,6.12,-1.24,15.60,1.07,8.73,1.49
260343,9.55,-2.26,16.56,1.15,8.73,1.57
260378,11.50,-4.72,18.01,1.16,8.73,1.65
260412,12.50,-4.61,20.39,1.16,8.73,1.70
260447,12.66,-5.04,23.42,1.14,8.73,1.75
260482,11.33,-6.11,26.76,1.10,8.73,1.83
260517,9.68,-7.22,28.87,1.01,8.73,1.89
260552,7.36,-6.41,31.59,0.96,8.73,1.92
260587,5.72,-6.02,32.67,0.89,8.73,1.97
260622,2.38,-7.34,33.46,0.77,8.73,2.01
260657,-2.13,-5.69,33.30,0.61,8.73,2.03
260692,-4.04,-5.33,30.71,0.44,8.73,1.98
260727,-5.11,-4.21,27.47,0.37,8.73,1.89
260762,-6.86,-2.54,25.13,0.33,8.73,1.76
260797,-7.01,-0.89,23.12,0.42,8.73,1.66
260832,-6.06,-2.21,20.02,0.59,8.73,1.65
260867,-3.46,-3.39,16.39,0.71,8.73,1.73
260902,-1.01,-4.64,13.67,0.71,8.73,1.79
260937,1.74,-3.70,13.62,0.66,8.73,1.86
260972,6.66,-3.34,14.40,0.61,8.73,1.82
261007,8.77,-4.34,13.99,0.67,8.73,1.68
261042,10.15,-4.83,15.23,0.69,8.73,1.62
261077,10.80,-4.39,18.39,0.68,8.73,1.58
261112,11.43,-4.02,21.87,0.74,8.73,1.57
261147,12.21,-4.72,25.20,0.83,8.73,1.58
261182,11.05,-5.17,28.20,0.89,8.73,1.58
261217,8.32,-6.41,30.57,0.95,8.73,1.57
261252,4.86,-7.72,32.09,0.96,8.73,1.68
261287,1.90,-7.51,32.69,0.94,8.73,1.71
261323,-0.92,-5.24,32.61,1.01,8.73,1.68
261357,-3.60,-4.61,30.85,1.07,8.73,1.69
261392,-4.97,-4.94,27.82,1.12,8.73,1.71
261427,-6.01,-5.02,25.01,1.13,8.73,1.78
261462,-6.78,-4.84,22.21,1.11,8.73,1.83
261498,-5.78,-2.71,19.41,1.03,8.73,1.85
261532,-3.50,-1.46,16.39,1.02,8.73,1.89
261567,-1.83,-3.56,13.53,0.99,8.73,1.84
261602,2.26,-2.31,12.44,0.92,8.73,1.71
261637,4.89,-0.66,13.36,0.94,8.73,1.60
261672,6.64,0.63,14.06,1.04,8.73,1.51
261706,10.47,0.75,16.43,1.22,8.73,1.46
261741,12.01,-1.68,18.98,1.37,8.73,1.54
261776,11.85,-4.72,20.54,1.31,8.73,1.67
261811,11.62,-7.01,23.36,1.10,8.73,1.74
261846,11.01,-7.14,26.01,0.94,8.73,1.71
261881,9.86,-3.48,30.20,0.85,8.73,1.61
261916,7.53,-5.03,32.35,0.86,8.73,1.51
261951,3.82,-5.94,33.95,0.90,8.73,1.60
261986,-0.19,-5.91,33.23,0.90,8.73,1.59
262021,-2.89,-5.10,31.38,0.92,8.73,1.58
262056,-4.97,-3.62,28.79,0.94,8.73,1.61
262096,-6.58,-4.29,25.61,0.86,8.73,1.62
262131,-6.28,-3.17,22.59,0.93,8.73,1.62
262166,-5.58,-3.48,19.48,1.03,8.73,1.66
262201,-4.87,-5.43,16.23,1.09,8.73,1.74
262236,-2.96,-4.81,14.02,1.03,8.73,1.71
262271,0.30,-0.57,13.50,1.01,8.73,1.60
262306,4.02,-0.02,13.23,1.09,8.73,1.46
262342,5.73,-0.11,13.35,1.20,8.73,1.43
262377,7.97,-1.57,13.76,1.28,8.73,1.52
262411,10.00,-4.20,16.71,1.35,8.73,1.63
262446,11.81,-5.36,20.11,1.20,8.73,1.76
262481,12.84,-6.19,23.31,1.09,8.73,1.80
262516,11.69,-7.54,26.98,1.05,8.73,1.85
262551,9.53,-7.48,29.21,0.98,8.73,1.85
262586,5.83,-7.97,31.58,0.90,8.73,1.90
262621,2.70,-7.24,32.58,0.80,8.73,1.89
262656,-0.17,-7.28,33.28,0.72,8.73,1.93
262691,-1.88,-6.51,31.80,0.61,8.73,1.93
262726,-3.78,-6.27,28.65,0.49,8.73,1.85
262761,-5.79,-4.02,26.61,0.39,8.73,1.73
262796,-6.66,-2.76,24.02,0.42,8.73,1.63
262831,-6.48,-2.21,21.31,0.50,8.73,1.52
262866,-6.06,-2.06,18.11,0.63,8.73,1.52
262901,-5.39,-3.54,15.46,0.73,8.73,1.59
262936,-1.36,-1.93,14.35,0.78,8.73,1.60
262971,0.46,-2.07,13.65,0.82,8.73,1.65
263006,4.39,-2.48,12.93,0.86,8.73,1.65
263041,8.00,-3.65,13.37,0.89,8.73,1.67
263076,11.25,-3.69,15.89,0.94,8.73,1.67
263111,13.32,-5.06,19.75,1.01,8.73,1.69
263146,13.12,-5.51,22.55,1.05,8.73,1.76
263181,12.53,-6.32,25.52,1.07,8.73,1.86
263216,9.80,-7.56,28.25,1.01,8.73,1.93
263251,6.80,-8.34,30.31,0.93,8.73,1.97
263286,3.39,-7.79,31.32,0.82,8.73,2.02
263321,0.57,-7.63,31.45,0.66,8.73,1.99
263356,-1.65,-6.10,31.57,0.61,8.73,1.88
263391,-4.28,-5.49,29.68,0.58,8.73,1.75
263426,-5.61,-4.30,27.19,0.55,8.73,1.64
263461,-6.63,-4.04,24.33,0.50,8.73,1.54
263496,-6.32,-3.24,21.24,0.44,8.73,1.39
263531,-7.36,-1.24,19.86,0.42,8.73,1.21
263566,-4.91,-0.14,17.71,0.53,8.73,1.07
263601,-2.31,1.30,15.50,0.72,8.73,0.99
263636,1.03,1.18,14.19,0.98,8.73,1.07
263672,4.24,-1.27,13.93,1.14,8.73,1.28
263706,7.59,-3.10,14.81,1.22,8.73,1.42
263741,10.43,-1.86,16.52,1.36,8.73,1.49
263776,12.20,-2.47,18.77,1.61,8.73,1.64
263811,12.31,-1.94,22.30,1.87,8.73,1.93
263846,11.31,-5.91,24.98,1.92,8.73,2.31
263881,10.08,-11.06,28.43,1.67,8.73,2.56
263916,8.41,-13.08,30.77,1.33,8.73,2.63
263951,4.97,-10.92,32.53,1.01,8.73,2.62
263986,2.21,-10.51,33.44,0.70,8.73,2.58
264021,-0.97,-9.99,32.63,0.42,8.73,2.51
264056,-4.34,-6.79,33.28,0.19,8.73,2.32
264091,-6.50,-7.08,30.45,0.01,8.73,2.10
264131,-6.68,-3.00,26.59,-0.15,8.73,1.74
264166,-8.65,-0.09,24.26,-0.11,8.73,1.35
264201,-6.88,-0.12,20.94,-0.06,8.73,0.94
264235,-3.19,4.74,19.81,0.15,8.73,0.63
264270,0.30,4.45,17.70,0.63,8.73,0.62
264305,2.42,2.07,17.41,1.02,8.73,0.76
264340,7.70,-0.64,17.89,1.06,8.73,1.11
264375,12.02,-3.84,19.81,1.30,8.73,1.27
264409,13.00,-3.24,24.16,1.40,8.73,1.39
264444,13.32,-5.49,26.93,1.48,8.73,1.58
264479,12.22,-7.18,29.48,1.46,8.73,1.81
264514,11.02,-7.57,31.23,1.49,8.73,2.04
264549,7.55,-11.45,32.53,1.34,8.73,2.23
264584,4.77,-9.13,34.54,1.12,8.73,2.35
264619,1.01,-11.72,34.22,0.91,8.73,2.45
264654,-1.94,-7.98,32.62,0.68,8.73,2.44
264689,-3.70,-7.11,30.38,0.55,8.73,2.32
264723,-6.26,-7.88,27.53,0.44,8.73,2.19
264757,-6.22,-4.55,24.13,0.37,8.73,2.02
264791,-6.11,-3.72,20.55,0.44,8.73,1.87
264826,-5.35,-5.08,16.76,0.49,8.73,1.81
264861,-2.44,-4.69,15.01,0.48,8.73,1.72
264896,0.53,-3.21,13.87,0.49,8.73,1.62
264931,2.61,-2.34,12.46,0.51,8.73,1.56
264966,6.29,-1.47,11.95,0.59,8.73,1.45
265001,9.37,-1.30,13.04,0.71,8.73,1.35
265036,11.49,-2.95,14.21,0.82,8.73,1.35
265071,13.30,-3.70,16.92,0.84,8.71,1.35
265106,13.28,-3.60,20.35,0.97,8.64,1.36
265141,12.31,-4.04,23.23,1.13,8.54,1.47
265176,10.69,-4.81,25.76,1.18,8.50,1.60
265211,6.67,-6.28,27.56,1.20,8.46,1.76
265246,4.35,-6.39,28.51,1.11,8.38,1.84
265281,2.25,-6.65,29.48,1.05,8.48,1.82
265316,0.03,-5.61,29.89,1.11,8.49,1.72
265351,-1.69,-6.26,28.16,1.16,8.50,1.67
265387,-4.32,-5.46,27.42,1.21,8.51,1.71
265421,-6.28,-5.55,24.73,1.27,8.50,1.76
265456,-6.73,-4.89,21.02,1.20,8.46,1.84
265491,-7.49,-5.06,17.24,1.03,8.40,1.82
265526,-6.64,-3.03,14.54,0.83,8.37,1.75
265561,-3.70,-2.34,11.83,0.70,8.34,1.61
265596,-2.32,-1.18,10.10,0.65,8.36,1.41
265631,-0.11,-0.74,10.06,0.69,8.41,1.38
265666,3.13,-2.45,9.90,0.72,8.45,1.44
265701,5.96,-3.43,10.09,0.70,8.44,1.50
265736,8.89,-4.34,11.51,0.59,8.42,1.55
265771,10.16,-4.91,13.51,0.35,8.37,1.57
265806,9.57,-2.25,15.30,0.14,8.36,1.43
265841,11.26,-4.25,19.69,0.19,8.31,1.30
265876,12.72,-2.10,22.19,0.35,8.25,1.19
265911,10.81,-2.54,24.70,0.55,8.30,1.27
265946,8.35,-3.55,26.31,0.69,8.39,1.39
265980,6.05,-4.34,28.51,0.75,8.43,1.51
266015,2.96,-5.93,29.80,0.76,8.50,1.63
266050,-0.37,-6.48,29.46,0.74,8.51,1.67
266085,-2.94,-5.20,29.23,0.75,8.55,1.61
266120,-5.02,-4.33,26.37,0.79,8.54,1.56
266160,-6.04,-2.36,23.02,0.85,8.43,1.51
266195,-7.22,-2.52,19.90,0.89,8.35,1.50
266230,-7.86,-2.96,17.46,0.90,8.31,1.52
266265,-7.86,-1.03,15.45,0.85,8.35,1.51
266300,-4.90,-0.07,12.85,0.83,8.40,1.50
266335,-1.94,-0.55,11.17,0.83,8.44,1.47
266370,0.63,-1.33,10.09,0.86,8.43,1.47
266405,5.07,-1.67,11.01,0.91,8.47,1.51
266440,6.75,-2.39,10.78,0.97,8.41,1.46
266475,8.68,-3.24,11.35,1.02,8.39,1.50
266510,9.90,-2.50,13.35,1.01,8.40,1.54
266545,10.76,-2.22,16.19,1.05,8.40,1.58
266580,11.25,-3.41,19.13,1.05,8.41,1.64
266616,10.96,-5.39,22.27,1.02,8.48,1.71
266650,9.74,-5.78,25.47,0.93,8.54,1.73
266685,7.84,-6.17,27.73,0.86,8.57,1.72
266720,5.70,-6.44,29.51,0.80,8.57,1.72
266755,2.85,-6.79,30.05,0.76,8.62,1.72
266790,-0.27,-5.71,29.77,0.75,8.59,1.65
266825,-3.40,-4.86,27.96,0.75,8.57,1.60
266860,-5.82,-4.53,26.40,0.76,8.54,1.59
266895,-6.86,-4.03,23.85,0.77,8.56,1.60
266930,-7.71,-2.90,21.26,0.81,8.56,1.59
266965,-7.50,-2.71,18.29,0.81,8.58,1.57
267000,-6.35,-2.55,15.17,0.83,8.58,1.55
267035,-3.81,-3.71,12.10,0.88,8.51,1.62
267070,-1.58,-3.65,10.71,0.86,8.51,1.60
267105,0.59,-3.02,10.32,0.87,8.53,1.52
267140,4.49,-1.79,10.69,0.92,8.56,1.53
267175,7.46,-1.70,12.00,0.99,8.58,1.51
267210,9.97,-1.66,13.70,1.07,8.58,1.51
267245,11.41,-3.35,16.00,1.16,8.62,1.55
267280,11.86,-4.38,18.94,1.18,8.66,1.62
267316,11.23,-5.65,22.00,1.10,8.68,1.69
267350,10.11,-6.51,25.06,0.99,8.72,1.68
267384,8.68,-5.37,27.37,0.88,8.73,1.60
267419,6.45,-5.45,29.43,0.85,8.66,1.56
267454,4.02,-6.04,29.63,0.84,8.55,1.52
267489,1.57,-6.70,29.63,0.82,8.50,1.62
267524,-1.14,-6.25,29.26,0.73,8.50,1.66
267559,-3.81,-5.46,27.95,0.62,8.56,1.68
267594,-5.83,-4.69,26.06,0.48,8.63,1.67
267629,-7.03,-4.17,23.16,0.33,8.68,1.61
267664,-6.32,-1.12,20.24,0.29,8.73,1.45
267699,-4.88,-0.56,16.30,0.39,8.65,1.33
267734,-5.21,1.19,14.11,0.47,8.60,1.25
267769,-3.80,1.08,12.12,0.59,8.58,1.25
267804,-1.53,0.00,11.74,0.69,8.62,1.33
267840,0.30,-0.20,10.64,0.71,8.66,1.45
267874,4.67,-2.40,12.54,0.73,8.73,1.50
267909,7.72,-2.40,13.85,0.72,8.73,1.52
267944,10.97,-1.99,16.42,0.77,8.73,1.49
267979,12.41,-2.33,19.11,0.80,8.73,1.48
268014,12.62,-4.19,21.91,0.81,8.66,1.44
268049,11.81,-4.97,23.32,0.88,8.55,1.44
268084,10.05,-5.95,25.42,0.92,8.52,1.45
268119,8.57,-6.04,27.60,0.94,8.52,1.42
268154,6.11,-5.87,29.41,0.96,8.55,1.46
268194,2.25,-5.38,30.21,0.99,8.61,1.44
268229,-0.21,-4.37,29.50,1.10,8.61,1.44
268264,-3.05,-4.86,27.31,1.18,8.59,1.47
268299,-4.31,-4.06,24.56,1.23,8.51,1.54
268334,-5.50,-5.10,21.62,1.22,8.43,1.64
268370,-7.04,-3.93,19.79,1.15,8.40,1.73
268404,-8.08,-3.94,17.74,1.04,8.44,1.78
268439,-6.84,-3.35,15.40,0.93,8.51,1.81
268474,-5.26,-4.15,13.00,0.84,8.56,1.81
268509,-2.71,-4.02,10.66,0.77,8.59,1.75
268544,0.21,-3.98,10.16,0.68,8.58,1.83
268579,4.68,-4.69,10.75,0.60,8.57,1.89
268614,7.46,-6.64,11.32,0.47,8.53,1.89
268649,10.14,-5.83,13.62,0.32,8.50,1.83
268684,10.62,-5.87,16.00,0.25,8.51,1.68
268719,11.42,-3.91,18.99,0.26,8.55,1.53
268754,11.64,-3.62,21.59,0.33,8.62,1.43
268789,10.96,-4.10,24.73,0.42,8.70,1.38
268824,10.07,-2.84,27.61,0.50,8.73,1.29
268859,8.14,-3.05,29.53,0.59,8.66,1.31
268894,5.07,-3.80,30.11,0.68,8.58,1.34
268929,1.52,-4.05,30.31,0.70,8.46,1.44
268964,-1.53,-3.00,28.34,0.64,8.40,1.46
268999,-5.20,-2.88,28.98,0.61,8.52,1.43
269033,-6.00,-3.29,23.67,0.67,8.46,1.42
269067,-6.91,-1.15,22.08,0.71,8.41,1.34
269102,-7.07,-1.27,20.14,0.79,8.46,1.34
269137,-4.83,-0.91,15.63,0.81,8.45,1.25
269171,-4.63,-0.80,13.08,0.89,8.39,1.27
269206,-3.70,-1.06,11.20,0.98,8.36,1.26
269240,-2.31,-1.14,9.80,1.06,8.33,1.34
269275,0.10,-0.84,9.62,1.07,8.35,1.48
269310,3.97,-0.42,10.14,1.09,8.35,1.55
269345,6.91,-1.00,10.93,1.14,8.32,1.57
269380,10.30,-2.69,12.69,1.23,8.27,1.60
269415,12.27,-2.93,15.02,1.33,8.18,1.70
269450,12.07,-3.92,17.52,1.38,8.11,1.84
269485,11.14,-5.46,20.26,1.37,8.09,2.00
269520,10.80,-6.67,22.32,1.24,8.08,2.17
269554,10.54,-7.47,24.33,1.05,8.12,2.25
269589,7.56,-8.71,26.42,0.86,8.15,2.31
269624,3.64,-8.05,27.64,0.67,8.17,2.29
269659,0.74,-7.36,28.37,0.44,8.21,2.22
269694,-1.50,-6.17,27.86,0.32,8.31,2.07
269729,-3.30,-5.74,26.72,0.26,8.39,1.90
269764,-5.24,-4.84,26.14,0.20,8.46,1.73
269799,-6.43,-4.37,23.35,0.16,8.55,1.58
269834,-6.83,-2.64,20.16,0.07,8.57,1.38
269869,-8.70,-1.71,17.83,0.11,8.62,1.15
269904,-6.37,-0.08,15.14,0.24,8.71,0.94
269939,-4.64,-0.27,12.36,0.43,8.70,0.77
269974,-2.14,0.43,11.08,0.68,8.70,0.79
270009,0.28,0.93,10.96,0.90,8.73,0.91
270044,3.09,0.04,10.33,1.05,8.73,1.13
270079,6.57,-0.51,12.33,1.18,8.73,1.31
270114,10.30,-0.76,16.00,1.32,8.73,1.45
270149,12.37,-1.41,19.28,1.61,8.73,1.58
270184,13.09,-4.12,21.70,1.91,8.73,1.89
270224,10.84,-6.30,25.52,2.04,8.69,2.42
270259,9.45,-11.22,27.51,1.86,8.73,2.83
270294,7.09,-12.29,30.66,1.48,8.73,2.95
270329,4.66,-10.70,32.86,1.15,8.73,2.80
270365,0.98,-10.25,34.36,0.83,8.73,2.59
270399,-2.11,-8.69,32.74,0.75,8.73,2.36
270433,-4.58,-7.45,29.63,0.75,8.73,2.18
270469,-6.03,-7.43,27.12,0.69,8.73,2.07
270503,-6.01,-6.84,23.28,0.59,8.73,1.96
270538,-5.49,-3.26,19.91,0.47,8.73,1.77
270573,-4.99,-3.66,16.60,0.47,8.73,1.59
270608,-3.05,-4.01,14.41,0.52,8.73,1.43
270643,-0.28,-0.71,13.25,0.60,8.73,1.13
270678,0.84,1.13,12.54,0.77,8.73,1.08
270713,5.13,-0.59,13.23,0.93,8.73,1.22
270747,8.99,-1.29,15.14,1.05,8.73,1.30
270781,11.22,-3.32,16.61,1.15,8.73,1.36
270815,12.90,-4.95,19.06,1.27,8.73,1.43
270850,12.41,-4.69,21.98,1.38,8.73,1.58
270884,11.79,-6.13,24.52,1.50,8.73,1.78
270919,10.61,-8.10,27.80,1.42,8.73,1.91
270953,7.81,-7.61,29.93,1.29,8.73,1.91
270988,4.45,-7.13,31.18,1.18,8.73,1.79
271022,1.09,-6.77,31.34,1.17,8.73,1.58
271056,-1.34,-5.94,29.83,1.35,8.73,1.44
271090,-3.87,-6.23,28.06,1.46,8.73,1.44
271124,-5.20,-7.21,25.73,1.41,8.73,1.52
271158,-5.92,-7.74,23.39,1.12,8.73,1.61
271192,-6.64,-6.29,20.82,0.77,8.73,1.57
271226,-6.96,-2.72,18.31,0.53,8.73,1.35
271260,-5.52,-0.12,16.31,0.45,8.73,1.05
271295,-2.59,0.43,13.31,0.57,8.73,0.78
271329,-0.61,1.68,11.67,0.78,8.73,0.58
271364,-0.29,1.07,10.91,1.02,8.73,0.65
271399,4.19,-0.61,10.97,1.22,8.73,0.83
271433,7.72,-2.09,12.21,1.37,8.73,1.03
271467,10.69,-2.54,14.32,1.44,8.73,1.24
271502,12.03,-4.47,18.10,1.45,8.73,1.43
271537,13.34,-6.08,21.62,1.42,8.73,1.60
271572,11.95,-8.01,23.44,1.38,8.73,1.77
271607,10.22,-7.24,26.06,1.25,8.73,1.90
271642,8.69,-8.74,28.19,1.11,8.71,2.01
271677,5.44,-9.42,29.51,0.99,8.62,2.25
271712,2.35,-10.79,29.83,0.73,8.62,2.42
271747,-0.55,-9.40,30.48,0.46,8.58,2.50
271781,-3.17,-6.73,28.65,0.26,8.62,2.34
271815,-5.76,-5.71,27.01,0.15,8.64,2.12
271850,-7.41,-3.56,24.49,0.20,8.66,1.89
271885,-7.92,-3.27,21.16,0.31,8.69,1.74
271920,-6.63,-2.94,17.95,0.45,8.68,1.65
271955,-6.26,-3.27,14.82,0.49,8.66,1.56
271990,-3.40,-2.89,12.35,0.54,8.61,1.43
272025,-1.27,-1.53,11.05,0.61,8.58,1.26
272060,-0.05,-1.27,10.24,0.73,8.60,1.11
272095,3.34,-0.60,10.75,0.89,8.67,1.07
272129,6.65,-0.06,12.27,1.06,8.73,1.10
272163,9.09,-1.34,14.23,1.17,8.73,1.19
272198,11.48,-3.90,17.33,1.19,8.73,1.32
272238,11.40,-5.10,22.33,1.17,8.73,1.43
272273,11.04,-5.00,24.89,1.25,8.73,1.54
272308,9.81,-5.99,27.29,1.24,8.73,1.63
272343,7.02,-6.73,29.09,1.18,8.70,1.67
272378,4.19,-6.72,29.29,1.11,8.62,1.76
272413,1.33,-7.24,29.38,1.01,8.63,1.74
272448,-1.30,-6.77,29.31,1.08,8.59,1.68
272483,-3.57,-6.05,27.28,1.09,8.54,1.69
272518,-5.54,-6.20,26.33,0.98,8.48,1.76
272553,-7.19,-5.86,24.12,0.79,8.52,1.80
272587,-6.94,-4.89,22.06,0.60,8.62,1.74
272622,-5.59,-2.83,18.16,0.39,8.60,1.57
272657,-6.44,-1.57,15.39,0.39,8.57,1.42
272692,-4.80,-0.14,13.24,0.46,8.54,1.41
272727,-1.57,-0.68,11.26,0.55,8.53,1.38
272762,0.53,-2.18,10.61,0.59,8.53,1.49
272797,2.58,-1.54,10.66,0.55,8.57,1.57
272832,5.70,-2.28,11.89,0.54,8.61,1.58
272867,9.25,-4.21,13.57,0.50,8.71,1.54
272902,11.07,-2.72,16.75,0.55,8.73,1.50
272937,12.15,-2.91,19.19,0.65,8.73,1.44
272972,12.61,-3.39,22.08,0.72,8.70,1.41
273007,11.77,-4.68,24.42,0.88,8.63,1.46
273042,10.30,-5.84,26.37,0.95,8.59,1.50
273077,7.81,-5.90,28.48,0.99,8.55,1.53
273112,4.89,-5.28,29.53,0.99,8.55,1.55
273147,1.95,-4.41,29.81,0.99,8.55,1.57
273182,-0.96,-4.04,29.59,1.07,8.58,1.54
273217,-3.29,-3.86,27.68,1.14,8.60,1.56
273252,-5.36,-3.42,25.98,1.25,8.57,1.61
273287,-6.57,-4.61,22.32,1.40,8.52,1.70
273322,-7.09,-5.48,19.24,1.41,8.51,1.86
273357,-6.87,-5.89,16.63,1.28,8.52,1.98
273392,-5.69,-6.54,14.57,1.13,8.61,2.01
273427,-4.67,-6.56,12.54,0.96,8.69,1.98
273462,-1.97,-4.70,11.68,0.84,8.73,1.89
273497,1.29,-3.32,11.78,0.80,8.73,1.79
273532,4.71,-3.31,12.11,0.77,8.73,1.72
273567,7.54,-4.98,13.54,0.66,8.73,1.76
273602,9.87,-6.94,15.83,0.50,8.73,1.75
273636,11.64,-6.87,19.20,0.27,8.73,1.67
273671,12.11,-3.91,22.22,0.17,8.73,1.47
273706,11.59,-2.27,25.06,0.28,8.73,1.33
273741,9.49,-3.45,27.53,0.50,8.73,1.40
273776,7.19,-5.19,29.09,0.67,8.73,1.54
273811,4.45,-7.05,30.64,0.72,8.73,1.72
273846,1.55,-5.41,30.44,0.68,8.73,1.80
273881,-1.63,-6.24,29.42,0.57,8.73,1.79
273916,-4.43,-4.19,29.20,0.58,8.73,1.68
273951,-5.94,-3.11,26.99,0.74,8.73,1.59
273986,-7.25,-3.98,24.55,0.77,8.73,1.58
274021,-9.15,-0.46,23.28,0.83,8.73,1.57
274056,-6.78,-2.77,19.67,0.88,8.73,1.56
274091,-4.83,-2.59,17.15,0.93,8.73,1.62
274126,-2.82,-3.71,14.29,0.97,8.73,1.63
274161,0.54,-3.69,12.42,0.97,8.73,1.66
274196,3.47,-3.71,12.28,0.92,8.73,1.71
274231,6.60,-3.45,12.66,0.90,8.73,1.71
274271,9.22,-3.66,13.71,0.89,8.73,1.77
274306,10.14,-4.76,15.23,0.80,8.73,1.78
274341,11.05,-4.10,18.52,0.78,8.73,1.76
274376,11.99,-4.41,22.16,0.76,8.73,1.76
274411,11.44,-6.13,24.96,0.74,8.73,1.74
274446,10.46,-5.28,27.62,0.71,8.73,1.67
274481,7.62,-5.01,29.70,0.74,8.73,1.66
274516,4.99,-5.28,30.97,0.74,8.73,1.70
274551,1.91,-4.98,31.87,0.74,8.73,1.68
274586,-0.81,-5.45,31.22,0.71,8.73,1.65
274621,-3.85,-5.46,29.72,0.69,8.73,1.64
274656,-6.02,-5.49,27.95,0.63,8.73,1.62
274691,-6.37,-3.91,24.79,0.53,8.73,1.56
274725,-6.77,-2.28,21.98,0.55,8.73,1.45
274759,-6.41,-1.44,19.22,0.63,8.73,1.38
274794,-2.94,-2.36,15.54,0.74,8.73,1.36
274829,-0.67,-1.11,13.78,0.79,8.73,1.26
274864,2.11,0.35,13.27,0.90,8.73,1.26
274899,3.61,1.43,13.49,1.04,8.73,1.24
274934,6.13,0.28,15.08,1.20,8.73,1.31
274969,9.49,-2.32,16.21,1.30,8.73,1.44
275004,11.72,-3.88,19.30,1.34,8.73,1.56
275039,13.13,-5.22,22.36,1.31,8.73,1.67
275074,12.83,-5.82,25.81,1.20,8.73,1.72
275109,10.75,-7.15,27.96,1.11,8.73,1.73
275144,7.70,-7.95,30.20,0.99,8.73,1.62
275179,4.51,-6.40,31.85,0.92,8.73,1.47
275214,2.35,-7.58,32.69,0.95,8.73,1.54
275249,-0.07,-5.79,33.57,0.97,8.73,1.70
275284,-3.02,-7.36,32.36,0.86,8.73,1.81
275319,-4.90,-6.71,29.51,0.57,8.73,1.87
275354,-6.38,-2.97,26.51,0.43,8.73,1.79
275389,-8.07,-3.08,23.30,0.44,8.73,1.69
275424,-6.45,-0.35,20.61,0.58,8.73,1.67
275459,-3.75,-2.07,17.50,0.74,8.73,1.80
275494,-1.33,-4.07,14.32,0.81,8.73,1.96
275529,2.01,-6.16,13.50,0.70,8.73,2.04
275564,4.31,-3.93,14.65,0.65,8.73,1.91
275599,7.03,-2.22,15.89,0.68,8.73,1.74
275633,9.12,-1.01,16.91,0.78,8.73,1.66
275668,10.77,-3.84,19.49,0.90,8.73,1.65
275703,11.96,-5.29,22.71,0.87,8.73,1.64
275738,12.79,-4.48,26.30,0.85,8.73,1.57
275773,11.03,-6.94,29.31,0.87,8.73,1.54
275808,8.48,-5.42,32.18,0.81,8.73,1.38
275843,6.54,-4.26,33.82,0.89,8.73,1.28
275878,3.15,-5.29,34.32,1.11,8.73,1.28
275913,-0.24,-5.96,34.62,1.23,8.73,1.42
275948,-3.31,-5.23,33.81,1.24,8.73,1.57
275983,-5.52,-5.57,30.03,1.22,8.73,1.67
276018,-6.89,-5.04,27.03,1.09,8.73,1.73
276053,-7.67,-4.23,24.28,1.07,8.73,1.74
276088,-5.79,-3.81,20.32,1.06,8.73,1.79
276123,-3.05,-2.60,17.49,1.01,8.73,1.82
276158,0.29,-0.96,15.58,0.98,8.73,1.70
276193,2.45,-1.76,15.60,1.01,8.73,1.65
276228,6.34,-2.85,15.64,1.07,8.73,1.59
276263,8.56,-0.89,16.18,1.12,8.73,1.59
276303,10.64,-1.92,18.66,1.13,8.73,1.70
276339,12.44,-2.54,21.84,1.17,8.73,1.80
276374,12.25,-7.39,23.99,1.11,8.73,1.86
276408,12.35,-6.18,28.31,1.02,8.73,1.92
276442,10.59,-5.22,31.28,0.95,8.73,1.86
276477,7.08,-6.16,33.47,0.98,8.73,1.79
276512,3.93,-6.94,34.42,0.93,8.73,1.75
276547,0.91,-6.13,33.47,0.94,8.73,1.71
276582,-1.85,-5.11,32.85,1.01,8.73,1.68
276617,-4.87,-5.68,31.22,1.00,8.73,1.72
276652,-6.67,-4.83,29.10,0.94,8.73,1.75
276686,-5.73,-4.07,24.78,0.97,8.73,1.78
276720,-6.23,-4.29,22.00,1.04,8.73,1.82
276754,-5.88,-5.94,19.47,0.99,8.73,1.88
276788,-2.79,-5.15,16.64,0.97,8.73,1.95
276824,-1.34,-3.45,14.40,0.90,8.73,2.04
276858,0.98,-5.05,13.98,0.85,8.73,2.07
276893,4.16,-4.19,15.08,0.74,8.73,2.02
276928,8.26,-2.36,16.65,0.84,8.73,1.88
276963,11.01,-5.04,20.16,0.91,8.73,1.86
276998,12.02,-4.92,24.39,0.91,8.73,1.85
277033,12.76,-4.61,27.17,0.94,8.73,1.85
277068,12.24,-6.10,30.06,0.91,8.73,1.93
277103,9.58,-4.96,32.80,0.91,8.73,1.90
277138,6.42,-6.77,34.45,0.86,8.73,1.91
277173,3.17,-6.46,34.70,0.81,8.73,1.82
277208,0.29,-5.80,34.30,0.85,8.73,1.76
277243,-3.31,-5.80,33.11,0.86,8.73,1.78
277278,-5.69,-5.32,32.02,0.78,8.73,1.78
277314,-6.67,-3.38,28.57,0.82,8.73,1.77
277348,-5.41,-4.05,23.77,0.77,8.73,1.71
277383,-4.63,-0.40,21.11,0.70,8.73,1.60
277418,-3.17,-1.37,18.23,0.83,8.73,1.55
277453,0.39,0.11,16.29,0.83,8.73,1.44
277488,3.10,-0.76,16.52,0.99,8.73,1.45
277523,4.50,-1.92,16.23,1.07,8.73,1.51
277558,6.58,-2.86,17.32,1.06,8.73,1.59
277593,9.36,-3.55,19.07,1.10,8.73,1.63
277628,11.41,-7.57,22.00,0.96,8.73,1.66
277663,12.98,-5.01,26.13,0.86,8.73,1.60
277698,12.94,-7.38,29.28,0.82,8.73,1.58
277733,11.83,-4.41,33.21,0.85,8.73,1.46
277768,7.64,-7.57,34.07,0.97,8.73,1.41
277803,4.14,-7.01,34.00,1.00,8.73,1.40
277839,1.24,-5.45,35.52,1.10,8.73,1.48
277873,-1.90,-5.75,34.36,1.18,8.73,1.58
277908,-4.35,-5.57,32.46,1.18,8.73,1.69
277943,-5.74,-4.92,29.85,1.18,8.73,1.77
277978,-5.91,-5.71,25.63,1.18,8.73,1.90
278013,-7.49,-3.50,23.31,1.13,8.73,1.93
278048,-4.29,-7.02,19.31,1.08,8.73,2.03
278083,-1.04,-3.34,17.63,0.96,8.73,2.06
278118,0.56,-4.15,15.72,0.96,8.73,2.10
278153,4.04,-6.06,16.08,0.85,8.73,2.11
278188,7.46,-3.39,17.03,0.82,8.73,2.02
278223,9.82,-5.33,18.02,0.83,8.73,1.97
278258,11.56,-2.45,22.26,0.87,8.73,1.90
278294,13.26,-4.78,24.91,0.93,8.73,1.95
278334,12.44,-7.30,29.35,0.90,8.73,1.95
278369,11.37,-6.90,32.00,0.78,8.73,1.92
278403,8.12,-6.25,33.71,0.83,8.73,1.88
278438,5.05,-5.07,35.03,0.82,8.73,1.88
278473,1.57,-7.85,33.30,0.76,8.73,1.91
278508,-1.90,-5.48,34.73,0.63,8.73,1.86
278543,-4.86,-4.75,33.10,0.62,8.73,1.79
278578,-5.43,-5.72,29.34,0.54,8.73,1.70
278612,-7.70,-1.14,28.37,0.52,8.73,1.58
278647,-7.52,-1.30,24.39,0.58,8.73,1.50
278681,-4.76,1.53,21.53,0.72,8.73,1.42
278716,-1.96,-0.64,18.48,0.92,8.73,1.45
278751,0.39,-1.44,15.81,0.97,8.73,1.44
278786,3.94,-2.16,15.11,1.05,8.73,1.52
278821,6.42,-2.12,16.51,1.07,8.73,1.58
278856,9.25,-2.65,19.06,1.14,8.73,1.65
278891,11.10,-5.56,21.17,1.15,8.73,1.75
278927,13.61,-5.87,24.23,1.04,8.73,1.79
278961,12.73,-5.56,27.52,1.00,8.73,1.81
278996,10.04,-8.07,30.80,1.01,8.73,1.86
279031,8.83,-6.40,33.03,0.96,8.73,1.85
279066,7.47,-6.90,34.34,0.93,8.73,1.91
279101,3.01,-7.51,33.75,0.91,8.73,1.94
279135,-1.26,-6.28,33.32,0.87,8.73,1.94
279170,-4.07,-7.03,33.78,0.81,8.73,1.95
279205,-6.21,-6.68,31.93,0.70,8.73,1.93
279240,-6.91,-4.39,27.95,0.74,8.73,1.88
279275,-5.79,-3.63,23.95,0.70,8.73,1.83
279309,-4.79,-2.26,21.16,0.74,8.73,1.77
279344,-3.20,-3.18,18.02,0.80,8.73,1.77
279379,-0.09,-3.10,16.07,0.77,8.73,1.70
279414,2.26,-3.00,15.33,0.80,8.73,1.72
279449,6.28,-3.27,15.56,0.81,8.73,1.73
279484,8.68,-2.48,17.63,0.84,8.73,1.68
279519,11.16,-3.97,20.11,0.96,8.73,1.63
279554,12.58,-4.30,22.71,1.03,8.73,1.63
279589,12.69,-5.55,24.36,1.01,8.73,1.66
279624,11.68,-5.32,29.06,1.07,8.73,1.70
279659,8.89,-8.26,31.48,1.00,8.73,1.73
279694,7.83,-5.91,33.73,0.97,8.73,1.71
279729,4.88,-5.75,34.21,1.01,8.73,1.68
279764,0.79,-7.48,34.10,1.05,8.73,1.71
279799,-2.93,-5.25,34.25,0.99,8.73,1.77
279834,-5.05,-5.01,31.20,1.04,8.73,1.81
279869,-5.97,-6.56,26.95,0.94,8.73,1.84
279904,-6.88,-4.07,24.91,0.86,8.73,1.82
279939,-6.02,-4.83,21.27,0.85,8.73,1.81
279974,-4.14,-5.09,17.98,0.87,8.73,1.91
280009,-2.55,-3.41,15.64,0.84,8.73,2.01
280044,1.99,-3.81,14.65,0.79,8.73,2.08
280079,3.64,-5.06,14.23,0.66,8.73,2.14
280114,5.27,-7.11,14.39,0.50,8.73,2.07
280149,9.58,-4.47,17.30,0.49,8.73,1.92
280184,11.02,-4.24,18.97,0.47,8.73,1.81
280219,11.33,-4.61,22.59,0.55,8.73,1.68
280254,11.75,-2.80,26.85,0.59,8.73,1.60
280289,11.07,-5.19,29.98,0.74,8.73,1.59
280325,9.22,-5.60,32.04,0.76,8.73,1.59
280364,4.82,-6.50,33.52,0.89,8.73,1.57
280399,2.53,-6.26,34.19,0.93,8.73,1.58
280434,0.07,-5.40,34.17,0.95,8.73,1.61
280468,-3.47,-4.58,32.55,0.99,8.73,1.63
280503,-6.04,-4.36,29.08,1.03,8.73,1.64
280538,-6.47,-3.66,26.28,1.07,8.73,1.68
280573,-7.76,-4.85,23.85,1.12,8.73,1.76
280608,-6.58,-4.16,20.16,1.07,8.73,1.83
280643,-4.12,-1.01,17.67,0.99,8.73,1.83
280678,-1.54,-1.50,15.73,1.00,8.73,1.75
280713,1.81,-2.48,15.75,1.00,8.73,1.71
280748,5.87,-0.92,15.50,1.04,8.73,1.66
280783,8.54,-2.61,15.95,1.14,8.73,1.70
280818,10.18,-4.34,18.10,1.12,8.73,1.76
280853,11.14,-3.82,21.66,1.05,8.73,1.85
280888,11.68,-5.62,24.11,0.97,8.73,1.84
280923,12.40,-7.03,27.82,0.93,8.73,1.87
280958,11.20,-6.23,30.87,0.82,8.73,1.82
280993,8.20,-5.49,33.49,0.88,8.73,1.71
281027,4.89,-6.52,33.78,0.89,8.73,1.67
281062,1.07,-6.43,33.90,0.90,8.73,1.66
281097,-1.47,-4.89,33.25,0.93,8.73,1.63
281132,-4.22,-3.45,31.21,0.97,8.73,1.61
281167,-6.32,-4.53,28.06,0.99,8.73,1.64
281202,-6.68,-3.06,25.08,0.96,8.73,1.62
281237,-8.23,-5.05,23.62,0.96,8.73,1.66
281272,-6.15,-4.89,19.38,0.99,8.73,1.68
281307,-3.65,-2.52,16.64,0.97,8.73,1.75
281343,-0.29,-1.07,15.36,0.97,8.73,1.66
281377,2.63,-1.93,14.80,1.03,8.73,1.69
281412,5.69,-3.67,14.64,1.01,8.73,1.71
281447,8.14,-0.96,16.18,1.05,8.73,1.70
281482,11.17,-4.01,18.89,1.12,8.73,1.75
281517,11.97,-5.61,21.23,1.07,8.73,1.79
281552,12.89,-6.45,24.66,0.95,8.73,1.81
281587,11.92,-6.21,27.86,0.91,8.73,1.79
281622,9.80,-6.87,29.93,0.86,8.73,1.79
281657,6.63,-7.27,31.53,0.86,8.73,1.81
281692,3.34,-7.85,32.81,0.80,8.73,1.85
281727,0.25,-6.50,33.47,0.72,8.73,1.92
281762,-2.31,-6.62,33.14,0.63,8.73,1.94
281797,-4.12,-5.28,30.68,0.55,8.73,1.86
281832,-5.63,-3.87,27.72,0.53,8.73,1.75
281867,-6.92,-2.55,24.06,0.58,8.73,1.66
281902,-7.49,-2.16,22.04,0.63,8.73,1.61
281937,-6.53,-0.81,19.83,0.73,8.73,1.57
281972,-6.08,-1.45,17.67,0.81,8.73,1.56
282006,-1.78,-1.55,16.02,0.91,8.73,1.51
282041,1.65,-1.78,15.64,0.95,8.73,1.49
282076,6.12,-0.66,16.10,1.10,8.73,1.41
282111,10.60,-2.38,16.55,1.21,8.73,1.48
282146,12.43,-3.12,19.12,1.33,8.73,1.54
282181,12.46,-4.81,22.64,1.29,8.73,1.65
282216,11.51,-5.62,26.20,1.20,8.73,1.71
282251,10.08,-6.36,28.80,1.13,8.73,1.76
282286,9.05,-5.42,30.98,1.05,8.73,1.73
282320,8.27,-5.43,33.04,1.02,8.73,1.76
282355,5.13,-6.70,34.39,1.03,8.73,1.80
282394,-0.68,-6.87,34.09,1.13,8.73,1.74
282429,-2.81,-6.23,32.30,1.18,8.73,1.76
282464,-4.70,-5.78,29.98,1.25,8.73,1.80
282499,-5.85,-6.27,26.75,1.25,8.73,1.88
282534,-5.70,-5.86,22.78,1.24,8.73,1.97
282569,-6.55,-6.97,19.88,1.20,8.73,2.08
282604,-5.88,-7.27,17.60,1.05,8.73,2.16
282639,-4.26,-5.11,15.89,0.92,8.73,2.19
282674,-0.23,-3.80,14.60,0.89,8.73,2.19
282709,4.92,-5.72,14.95,0.77,8.73,2.10
282744,8.19,-3.11,15.31,0.72,8.73,1.94
282779,10.68,-2.32,15.76,0.82,8.73,1.83
282815,11.81,-3.24,19.08,0.95,8.73,1.76
282849,12.08,-2.69,23.23,1.08,8.73,1.78
282884,11.37,-3.93,26.12,1.16,8.73,1.87
282919,10.15,-6.21,28.87,1.15,8.73,1.94
282954,8.42,-7.69,31.07,1.05,8.73,1.91
282989,6.12,-6.90,32.85,0.93,8.73,1.85
283024,3.19,-5.30,33.40,0.98,8.73,1.69
283059,-0.70,-6.40,33.20,1.05,8.73,1.62
283094,-3.88,-3.30,33.31,1.11,8.73,1.60
283129,-4.71,-4.25,30.31,1.19,8.73,1.64
283164,-5.83,-4.02,27.26,1.13,8.73,1.75
283198,-5.86,-4.44,23.52,1.01,8.73,1.76
283233,-5.23,-1.13,20.34,0.90,8.73,1.71
283268,-4.58,-0.35,18.07,0.88,8.73,1.66
283303,-3.05,-2.72,15.19,0.88,8.73,1.63
283338,0.46,-2.49,14.54,0.84,8.73,1.64
283373,4.51,-2.55,14.94,0.81,8.73,1.74
283408,7.90,-4.69,15.66,0.72,8.73,1.85
283443,11.23,-5.57,18.14,0.60,8.73,1.83
283478,11.99,-4.96,20.41,0.50,8.73,1.75
283512,12.23,-5.70,23.11,0.45,8.73,1.61
283547,12.12,-3.53,26.06,0.54,8.73,1.48
283582,11.51,-4.72,28.83,0.59,8.73,1.44
283617,9.19,-3.52,32.01,0.69,8.73,1.40
283652,5.60,-4.19,34.24,0.83,8.73,1.42
283686,2.15,-6.08,34.23,0.93,8.73,1.47
283721,0.04,-5.60,34.43,0.99,8.73,1.51
283756,-2.79,-4.14,33.73,1.13,8.73,1.50
283791,-5.04,-4.39,30.98,1.16,8.73,1.57
283825,-5.39,-3.91,27.26,1.15,8.73,1.64
283860,-6.12,-3.31,22.92,1.12,8.73,1.68
283895,-5.68,-3.84,19.73,1.14,8.73,1.69
283930,-3.51,-3.25,16.66,1.05,8.73,1.74
283965,-0.12,-0.42,15.10,1.09,8.73,1.69
284000,2.10,-2.25,14.17,1.10,8.73,1.69
284035,5.23,-2.35,14.80,1.18,8.73,1.61
284070,7.94,-1.41,16.48,1.28,8.73,1.63
284104,11.40,-1.97,18.91,1.39,8.73,1.65
284138,12.43,-2.66,20.72,1.48,8.73,1.80
284173,12.15,-5.33,22.58,1.46,8.73,1.98
284208,11.49,-7.14,26.25,1.29,8.73,2.11
284243,10.81,-5.03,30.16,1.18,8.73,2.17
284278,7.99,-7.68,31.97,1.05,8.73,2.20
284314,4.76,-8.68,33.57,0.94,8.73,2.22
284348,1.81,-7.21,33.89,0.85,8.73,2.19
284384,-0.35,-5.86,33.34,0.84,8.73,2.07
284423,-4.24,-4.64,31.10,0.92,8.73,1.94
284457,-6.05,-4.14,29.41,1.13,8.73,1.90
284492,-6.99,-5.57,27.03,1.22,8.73,1.97
284527,-6.60,-5.45,22.92,1.18,8.73,2.04
284562,-6.54,-7.08,18.75,1.17,8.73,2.16
284597,-4.47,-6.96,16.24,1.01,8.73,2.19
284632,-0.76,-3.39,15.30,0.89,8.73,2.13
284667,2.24,-3.96,14.91,0.83,8.73,2.05
284702,6.15,-4.07,14.77,0.78,8.73,1.97
284736,8.85,-0.72,16.33,0.78,8.73,1.88
284770,10.94,-2.44,19.21,0.92,8.73,1.82
284805,12.55,-4.90,22.75,0.93,8.73,1.80
284840,13.20,-6.22,24.84,0.92,8.73,1.81
284875,11.41,-5.86,28.59,0.97,8.73,1.82
284910,9.56,-6.46,30.91,0.91,8.73,1.81
284945,7.52,-6.77,33.19,0.87,8.73,1.80
284980,4.83,-5.13,35.18,0.87,8.73,1.73
285015,0.97,-6.19,34.97,0.90,8.73,1.73
285049,-2.15,-5.83,33.18,0.87,8.73,1.74
285083,-4.03,-4.69,30.23,0.87,8.73,1.72
285118,-5.79,-3.74,27.44,0.94,8.73,1.70
285153,-6.40,-3.60,24.11,0.92,8.73,1.71
285188,-6.63,-1.84,21.23,0.83,8.73,1.66
285223,-5.03,-0.67,18.61,0.87,8.73,1.62
285258,-3.99,-2.69,15.74,0.89,8.73,1.57
285293,-1.26,-2.00,14.50,0.89,8.73,1.48
285329,0.42,0.28,15.36,0.94,8.73,1.55
285363,7.91,-1.43,16.14,0.99,8.73,1.58
285398,9.71,-4.80,14.79,1.02,8.73,1.71
285433,11.49,-4.70,18.86,0.90,8.73,1.74
285468,12.61,-4.05,22.17,0.89,8.73,1.73
285503,12.10,-4.31,24.65,0.93,8.73,1.72
285538,10.76,-7.11,27.34,0.94,8.73,1.75
285573,9.74,-5.41,30.61,0.87,8.73,1.71
285608,7.99,-4.68,33.10,0.88,8.73,1.69
285643,4.98,-5.55,34.19,0.89,8.73,1.70
285678,1.03,-6.32,33.51,0.92,8.73,1.66
285713,-1.91,-6.41,30.83,0.95,8.73,1.62
285748,-4.90,-4.55,29.70,0.95,8.73,1.64
285782,-7.18,-4.01,28.14,1.00,8.73,1.65
285817,-7.41,-4.44,24.51,1.02,8.73,1.71
285851,-5.99,-3.21,21.18,0.96,8.73,1.75
285885,-5.37,-1.96,18.58,0.92,8.73,1.76
285920,-4.79,-0.55,16.52,0.93,8.73,1.76
285955,-1.10,-2.44,14.47,0.96,8.73,1.75
285990,1.69,-4.18,14.11,0.90,8.73,1.76
286025,5.33,-1.25,14.95,0.96,8.73,1.70
286060,8.86,-2.20,16.96,1.07,8.73,1.68
286095,11.33,-4.19,19.26,1.13,8.73,1.74
286129,12.90,-5.84,21.80,1.11,8.73,1.79
286163,13.40,-5.19,24.35,1.05,8.73,1.83
286198,11.96,-6.47,26.92,1.04,8.73,1.89
286233,10.00,-7.25,29.62,0.97,8.73,1.93
286267,6.60,-7.62,31.74,0.92,8.73,1.98
286301,3.65,-8.09,32.91,0.82,8.73,1.95
286335,0.28,-7.41,31.96,0.74,8.73,1.95
286370,-2.37,-5.03,32.54,0.64,8.73,1.87
286405,-4.60,-4.84,29.88,0.58,8.73,1.85
286445,-6.28,-4.89,26.73,0.37,8.73,1.68
286480,-6.38,-1.07,24.09,0.37,8.73,1.54
286515,-5.66,-3.53,20.13,0.30,8.73,1.38
286550,-7.05,1.37,19.01,0.34,8.73,1.21
286585,-4.53,0.67,16.90,0.53,8.73,1.22
286620,-0.65,-0.86,14.74,0.65,8.73,1.23
286655,1.44,-2.43,13.58,0.73,8.73,1.28
286690,3.36,-3.21,13.14,0.67,8.73,1.41
286725,7.70,-4.19,15.39,0.60,8.73,1.47
286760,8.90,-8.01,18.22,0.45,8.73,1.51
286795,11.77,-7.49,21.44,0.14,8.73,1.37
286831,12.92,-4.73,25.43,0.01,8.73,1.10
286865,10.47,-4.32,28.57,0.16,8.73,0.87
286900,8.32,-3.44,30.44,0.43,8.73,0.79
286935,7.61,-3.62,32.64,0.68,8.73,0.96
286970,4.76,-4.61,34.09,0.79,8.73,1.21
287005,1.51,-5.18,33.84,0.86,8.73,1.47
287040,-2.19,-5.11,33.41,0.77,8.73,1.65
287075,-5.44,-6.70,31.53,0.56,8.73,1.79
287110,-4.64,-2.84,27.98,0.43,8.73,1.75
287146,-5.46,-1.80,24.49,0.38,8.73,1.62
287180,-7.03,-0.39,21.69,0.43,8.73,1.51
287215,-6.27,2.09,20.47,0.66,8.73,1.53
287250,-4.03,-4.43,16.19,0.88,8.73,1.79
287285,0.01,-5.83,14.65,0.84,8.73,2.04
287321,3.24,-5.57,14.79,0.66,8.73,2.18
287356,5.13,-5.07,14.28,0.59,8.73,2.07
287390,8.96,-2.49,17.42,0.59,8.73,1.95
287425,11.44,-2.26,21.11,0.78,8.73,1.81
287460,12.94,-2.60,23.00,0.88,8.73,1.77
287494,13.50,-5.36,25.59,0.91,8.73,1.78
287529,11.54,-4.74,29.20,0.95,8.73,1.80
287563,9.28,-4.14,31.38,0.97,8.73,1.74
287597,6.75,-5.53,32.40,0.98,8.73,1.74
287632,4.00,-4.01,35.41,0.99,8.73,1.71
287667,0.09,-9.12,31.28,1.04,8.73,1.73
287702,-4.00,-7.32,34.77,1.05,8.73,1.69
287737,-5.25,-3.44,32.85,1.25,8.73,1.72
287772,-6.06,-6.56,25.95,1.24,8.73,1.83
287807,-6.70,-3.56,22.79,1.22,8.73,1.90
287843,-4.80,-5.04,19.44,1.25,8.73,1.98
287877,-4.06,-6.00,16.98,1.21,8.73,2.11
287912,-3.41,-6.10,14.83,1.05,8.73,2.17
287947,-0.06,-2.87,14.90,0.94,8.73,2.09
287981,2.10,-2.21,14.38,0.87,8.73,1.99
288016,5.33,-2.29,14.55,0.88,8.73,1.89
288051,8.84,-2.33,17.27,0.86,8.73,1.87
288086,11.28,-1.76,19.14,0.91,8.73,1.83
288121,13.22,-5.23,22.26,0.91,8.73,1.80
288156,12.79,-5.86,25.62,0.70,8.73,1.69
288191,10.64,-6.64,28.35,0.56,8.73,1.52
288226,9.24,-3.65,31.06,0.52,8.73,1.23
288261,6.13,-3.93,32.63,0.65,8.73,1.07
288296,3.37,-6.10,34.33,0.82,8.73,1.19
288332,0.63,-5.49,35.59,0.93,8.73,1.42
288367,-3.78,-5.73,33.78,0.89,8.73,1.55
288401,-4.71,-2.84,31.19,0.85,8.73,1.55
288436,-5.10,-3.29,26.46,0.84,8.73,1.54
288476,-5.79,-1.84,22.20,0.75,8.73,1.42
288511,-5.45,-1.73,19.44,0.87,8.73,1.38
288546,-4.07,-3.51,17.24,0.98,8.73,1.46
288581,-1.61,-1.98,15.57,1.02,8.73,1.50
288616,2.00,0.26,15.08,1.08,8.73,1.52
288651,5.84,-1.74,14.80,1.18,8.73,1.51
288686,7.81,-0.27,16.05,1.21,8.73,1.59
288721,11.12,-1.34,19.03,1.35,8.73,1.66
288756,12.03,-4.19,21.29,1.39,8.73,1.78
288791,11.86,-5.67,23.14,1.33,8.73,1.92
288826,12.45,-4.39,26.09,1.30,8.73,2.04
288861,10.04,-6.66,29.20,1.21,8.73,2.18
288896,7.66,-8.93,31.62,1.13,8.73,2.23
288931,3.68,-8.39,33.44,0.93,8.73,2.25
288966,2.17,-7.03,34.40,0.80,8.73,2.13
289001,-0.77,-5.78,34.10,0.80,8.73,1.93
289036,-3.63,-4.40,31.39,0.91,8.73,1.81
289071,-6.46,-5.29,28.11,1.03,8.73,1.78
289106,-7.58,-5.24,25.08,0.96,8.73,1.82
289141,-7.13,-4.02,22.75,0.89,8.73,1.80
289176,-5.15,-2.92,19.33,0.84,8.73,1.77
289211,-4.18,-2.46,16.63,0.86,8.73,1.71
289246,-0.73,-4.16,15.04,0.85,8.73,1.65
289281,2.07,-3.23,15.17,0.87,8.73,1.64
289316,5.49,-1.71,15.00,0.88,8.73,1.68
289352,8.47,-4.46,15.08,0.93,8.73,1.71
289387,10.92,-4.87,17.62,0.84,8.73,1.75
289421,11.90,-3.46,21.60,0.85,8.73,1.74
289456,11.50,-5.36,25.08,0.91,8.73,1.72
289491,10.73,-6.67,27.75,0.92,8.73,1.76
289526,11.79,-5.66,30.65,0.91,8.73,1.74
289561,8.23,-6.16,33.72,0.95,8.73,1.80
289596,3.80,-7.75,33.62,0.87,8.73,1.89
289631,0.33,-5.97,33.55,0.78,8.73,1.90
289666,-1.94,-6.39,32.66,0.74,8.73,1.89
289701,-4.13,-5.82,30.51,0.61,8.73,1.85
289736,-5.94,-3.90,27.54,0.61,8.73,1.75
289770,-6.95,-2.96,24.61,0.70,8.73,1.67
289805,-7.34,-3.16,21.86,0.73,8.73,1.63
289841,-6.67,-1.06,19.61,0.74,8.73,1.56
289875,-3.50,-1.35,17.58,0.77,8.73,1.46
289910,0.09,0.00,14.88,0.86,8.73,1.28
289945,2.47,-0.12,14.82,1.00,8.73,1.24
289980,4.21,0.63,14.40,1.09,8.73,1.31
290015,7.15,-1.66,15.56,1.24,8.73,1.44
290050,10.50,-4.75,19.14,1.21,8.73,1.58
290085,13.31,-3.99,22.52,1.23,8.73,1.66
290120,13.42,-4.94,25.80,1.24,8.73,1.72
290155,11.25,-7.18,29.14,1.18,8.73,1.81
290190,10.12,-5.54,31.57,1.14,8.73,1.87
290225,8.96,-6.74,33.15,1.10,8.73,1.88
290260,5.32,-6.80,33.82,1.06,8.73,1.86
290295,0.92,-7.61,33.49,1.01,8.73,1.86
290331,-2.76,-6.30,31.89,1.00,8.73,1.81
290365,-4.95,-4.79,29.64,1.03,8.73,1.81
290400,-6.86,-5.81,26.74,0.96,8.73,1.86
290435,-7.53,-4.10,24.27,0.85,8.73,1.86
290470,-7.10,-4.25,21.46,0.82,8.73,1.84
290510,-4.05,-2.58,18.45,0.78,8.73,1.90
290545,-1.59,-2.76,16.34,0.75,8.73,1.90
290580,0.19,-5.95,14.21,0.70,8.73,1.93
290615,4.60,-6.22,14.97,0.58,8.73,1.99
290650,7.15,-5.42,15.77,0.48,8.73,1.97
290685,10.11,-6.42,17.54,0.34,8.73,1.92
290720,12.17,-4.27,20.56,0.30,8.73,1.80
290755,13.36,-2.69,24.61,0.42,8.73,1.64
290790,12.65,-4.09,27.09,0.66,8.73,1.60
290825,12.19,-5.05,29.49,0.78,8.73,1.69
290860,9.39,-4.30,31.44,0.84,8.73,1.72
290895,6.24,-4.37,32.40,0.86,8.73,1.75
290930,2.38,-5.10,33.14,0.89,8.73,1.74
290965,-0.95,-6.21,32.44,0.89,8.73,1.74
291000,-3.49,-4.55,30.92,0.94,8.73,1.69
291035,-4.80,-3.35,28.52,1.04,8.73,1.68
291070,-5.35,-4.56,24.48,1.08,8.73,1.72
291105,-10.43,-4.29,25.91,1.15,8.73,1.76
291140,-6.31,-4.88,19.65,0.99,8.73,1.82
291175,-5.86,-1.89,16.52,0.94,8.73,1.76
291210,-2.91,-1.13,15.85,0.97,8.73,1.76
291245,2.41,-2.43,14.37,0.94,8.73,1.67
291280,5.28,-1.43,14.58,0.95,8.73,1.64
291316,6.48,-1.46,15.00,0.97,8.73,1.61
291350,9.43,-4.42,15.54,0.97,8.73,1.69
291386,11.29,-6.51,18.70,0.80,8.73,1.76
291420,11.65,-5.98,22.97,0.60,8.73,1.72
291455,11.88,-4.08,25.85,0.56,8.73,1.58
291490,11.36,-3.52,28.81,0.68,8.73,1.50
291525,8.43,-5.63,30.88,0.76,8.73,1.51
291560,6.54,-5.35,32.78,0.77,8.73,1.57
291595,3.27,-5.20,33.61,0.83,8.73,1.60
291630,-0.10,-4.28,33.35,0.89,8.73,1.60
291665,-3.66,-5.29,32.15,0.99,8.73,1.60
291700,-5.25,-3.90,30.35,1.11,8.73,1.61
291735,-5.98,-4.51,27.01,1.21,8.73,1.67
291770,-8.04,-5.72,24.15,1.21,8.73,1.78
291805,-7.77,-3.37,21.76,1.09,8.73,1.86
291840,-2.59,-1.79,19.16,1.08,8.73,1.88
291876,-0.62,-3.75,16.00,1.05,8.73,1.84
291910,1.28,-3.50,14.15,0.97,8.73,1.82
291945,5.41,-2.02,15.02,0.97,8.73,1.80
291980,7.55,-3.86,14.64,0.98,8.73,1.81
292015,10.57,-4.03,17.47,0.93,8.73,1.82
292050,12.17,-3.75,21.19,0.94,8.73,1.82
292085,12.96,-3.21,23.42,0.97,8.73,1.84
292120,13.04,-4.54,25.82,1.10,8.73,1.94
292155,11.81,-5.43,28.71,1.08,8.73,2.08
292190,9.64,-4.93,30.46,0.98,8.73,2.12
292225,5.25,-5.71,31.37,0.91,8.73,2.20
292260,2.22,-6.68,32.82,0.87,8.73,2.06
292294,-0.26,-5.85,33.15,0.84,8.73,1.93
292330,-3.87,-5.98,32.52,0.91,8.73,1.80
292364,-5.51,-2.72,30.64,1.09,8.73,1.76
292399,-6.65,-5.46,27.21,1.25,8.73,1.83
292434,-7.74,-6.62,23.54,1.19,8.73,1.91
292469,-5.51,-3.11,20.29,1.03,8.73,1.96
292504,-0.88,-1.64,16.50,0.96,8.73,1.92
292544,-1.31,-2.59,13.72,0.87,8.73,1.79
292579,1.30,-1.99,12.94,0.86,8.73,1.75
292614,4.18,-2.45,13.25,0.90,8.73,1.71
292649,6.82,-4.61,14.96,0.88,8.73,1.73
292684,10.80,-4.22,18.26,0.82,8.73,1.74
292719,12.05,-3.95,20.65,0.75,8.73,1.73
292754,11.48,-3.57,22.58,0.78,8.73,1.66
292789,11.91,-7.00,26.05,0.80,8.73,1.63
292824,11.13,-5.42,29.03,0.69,8.73,1.50
292859,8.72,-3.93,31.50,0.76,8.73,1.39
292894,5.48,-4.57,33.08,0.88,8.73,1.35
292929,2.60,-6.22,34.62,0.99,8.73,1.37
292964,-0.42,-4.33,35.22,1.09,8.73,1.45
292999,-3.82,-5.82,32.10,1.14,8.73,1.51
293034,-5.32,-5.04,28.97,1.12,8.73,1.58
293069,-6.36,-3.85,26.44,1.09,8.73,1.60
293104,-7.20,-3.19,23.81,1.10,8.73,1.62
293139,-5.39,-2.89,20.36,1.08,8.73,1.64
293174,-3.02,-2.04,16.64,1.01,8.73,1.60
293210,-1.04,0.13,15.03,1.05,8.73,1.52
293244,3.19,-1.34,15.05,1.11,8.73,1.52
293279,7.62,-1.85,15.49,1.23,8.73,1.44
293315,9.11,-1.99,14.79,1.26,8.73,1.48
293349,8.97,0.61,16.08,1.33,8.73,1.62
293385,11.62,-4.34,20.15,1.36,8.73,1.71
293420,13.04,-7.61,22.28,1.30,8.73,1.88
293454,12.22,-5.93,24.43,1.21,8.73,1.96
293488,10.42,-6.04,28.18,1.12,8.73,2.07
293523,8.84,-7.23,30.94,1.07,8.73,2.11
293558,5.29,-8.46,32.26,0.98,8.73,2.23
293593,2.05,-7.91,32.91,0.81,8.73,2.23
293628,-0.85,-5.51,33.07,0.72,8.73,2.10
293662,-3.76,-4.03,31.82,0.83,8.73,1.93
293697,-5.58,-5.52,29.26,0.99,8.73,1.86
293732,-6.00,-5.12,26.04,1.03,8.73,1.86
293767,-5.79,-5.63,21.43,1.06,8.73,1.90
293802,-6.55,-6.20,18.34,1.05,8.73,1.97
293838,-4.62,-5.21,15.81,0.90,8.73,1.92
293872,-1.97,-2.78,14.63,0.80,8.73,1.83
293907,1.94,-1.73,14.45,0.78,8.73,1.81
293942,5.71,-2.20,14.75,0.81,8.73,1.77
293977,7.72,-4.01,14.84,0.78,8.73,1.77
294012,9.99,-3.76,17.24,0.71,8.73,1.75
294047,11.49,-2.89,21.04,0.78,8.73,1.68
294082,12.52,-4.36,24.55,0.85,8.73,1.67
294117,12.48,-5.22,26.79,0.87,8.73,1.67
294152,11.05,-5.03,29.76,0.88,8.73,1.65
294187,8.19,-5.61,32.00,0.94,8.73,1.63
294222,4.56,-7.34,32.29,0.94,8.73,1.59
294257,1.70,-6.82,32.65,0.95,8.73,1.54
294292,-0.91,-4.77,32.89,1.04,8.73,1.52
294328,-3.36,-4.77,31.18,1.11,8.73,1.55
294362,-5.52,-5.29,28.29,1.08,8.73,1.62
294397,-6.53,-4.08,25.44,0.91,8.73,1.64
294432,-6.32,-4.14,21.59,0.86,8.73,1.59
294467,-5.87,-3.64,18.32,0.77,8.73,1.49
294502,-6.44,-2.03,16.94,0.78,8.73,1.42
294537,-0.66,-0.81,15.14,0.83,8.73,1.38
294577,2.62,-3.00,13.46,0.97,8.73,1.45
294612,3.90,-3.15,13.38,0.97,8.73,1.54
294647,7.30,-3.00,15.14,1.00,8.73,1.60
294682,9.62,-3.08,17.84,0.96,8.73,1.64
294717,12.15,-3.48,20.61,0.98,8.73,1.65
294752,13.44,-5.31,23.47,1.00,8.73,1.70
294787,13.62,-5.16,26.45,0.97,8.73,1.72
294823,10.48,-6.94,29.20,0.93,8.73,1.68
294857,8.11,-6.77,30.68,0.92,8.73,1.63
294892,4.52,-7.52,31.91,0.94,8.73,1.64
294927,2.16,-7.60,32.16,0.94,8.73,1.62
294962,-0.59,-5.21,32.17,0.99,8.73,1.57
294997,-3.65,-4.56,31.53,1.03,8.73,1.58
295032,-6.09,-4.57,29.17,1.04,8.73,1.64
295067,-5.91,-4.25,25.81,1.01,8.73,1.68
295102,-5.52,-4.55,21.53,0.96,8.73,1.68
295137,-5.61,-1.93,18.81,0.94,8.73,1.67
295172,-3.87,-2.91,15.76,1.02,8.73,1.71
295207,-2.46,-4.10,13.84,0.95,8.73,1.68
295242,0.60,-2.56,14.19,0.95,8.73,1.67
295277,4.40,-1.14,15.39,0.96,8.73,1.64
295313,6.64,-0.31,14.87,1.04,8.73,1.57
295347,11.23,-3.85,16.39,1.11,8.73,1.62
295382,13.09,-4.91,20.90,1.12,8.73,1.68
295417,13.07,-4.31,23.34,1.00,8.73,1.70
295452,11.89,-4.56,26.01,0.93,8.73,1.70
295487,10.20,-5.81,28.39,0.89,8.73,1.66
295522,7.71,-5.70,30.38,0.84,8.73,1.58
295557,5.73,-5.13,31.80,0.82,8.73,1.56
295592,2.93,-5.66,32.32,0.87,8.73,1.57
295627,-0.21,-6.31,32.64,0.90,8.73,1.67
295662,-3.02,-6.17,30.58,0.80,8.73,1.75
295697,-6.33,-3.55,31.36,0.78,8.73,1.67
295732,-4.27,-3.96,24.58,0.79,8.73,1.68
295767,-4.42,-4.49,19.61,0.84,8.73,1.62
295802,-5.23,-3.03,18.58,0.91,8.73,1.61
295837,-1.89,-4.60,16.35,0.89,8.73,1.65
295872,-1.55,-4.57,13.91,0.86,8.73,1.58
295907,-0.97,-0.10,13.83,0.87,8.73,1.55
295942,3.04,0.20,14.17,0.92,8.73,1.56
295977,5.66,-2.29,13.67,0.98,8.73,1.59
296012,9.60,-4.08,15.35,0.94,8.73,1.68
296047,11.30,-5.62,17.35,0.90,8.73,1.69
296082,12.04,-6.17,19.82,0.77,8.73,1.69
296117,12.72,-5.58,22.80,0.66,8.73,1.64
296152,11.96,-5.25,25.50,0.69,8.73,1.64
296187,10.91,-5.00,27.88,0.73,8.73,1.65
296222,7.64,-6.42,30.30,0.78,8.73,1.74
296257,4.56,-8.80,33.33,0.70,8.73,1.79
296292,2.36,-5.57,32.03,0.67,8.73,1.78
296327,-0.84,-6.00,28.31,0.60,8.73,1.70
296363,-3.75,-3.97,28.19,0.56,8.73,1.64
296397,-5.94,-3.35,26.65,0.61,8.73,1.56
296432,-6.10,-2.97,24.13,0.57,8.73,1.51
296467,-7.35,-1.65,22.54,0.53,8.73,1.40
296502,-6.67,1.03,20.22,0.63,8.73,1.29
296537,-4.25,0.41,17.11,0.78,8.73,1.21
296572,-0.68,0.06,13.46,0.94,8.73,1.13
296612,6.99,0.52,11.91,1.11,8.73,1.13
296647,6.58,-0.92,12.89,1.30,8.73,1.20
296682,6.88,-0.47,16.63,1.43,8.73,1.40
296717,7.83,-2.54,16.64,1.58,8.73,1.51
296752,10.52,-2.73,17.85,1.70,8.73,1.66
296787,12.29,-6.09,20.61,1.73,8.73,1.90
296823,12.40,-8.57,24.25,1.59,8.73,2.18
296857,11.11,-9.32,28.39,1.38,8.73,2.35
296892,7.97,-10.34,30.25,1.17,8.73,2.41
296927,5.01,-9.23,31.73,0.94,8.73,2.38
296962,2.03,-10.49,30.36,0.68,8.73,2.31
296997,-1.01,-7.46,32.30,0.59,8.73,2.14
297032,-4.08,-6.92,31.04,0.50,8.73,2.03
297067,-5.90,-6.37,28.16,0.30,8.73,1.90
297102,-6.80,-4.33,25.72,0.11,8.73,1.68
297137,-7.30,-3.70,22.93,0.02,8.73,1.38
297172,-7.41,-0.54,20.28,0.07,8.73,1.10
297207,-3.80,2.76,17.29,0.28,8.73,0.86
297241,0.25,3.07,15.23,0.63,8.73,0.69
297276,0.64,3.22,14.15,0.91,8.73,0.69
297311,5.71,1.18,14.96,1.20,8.73,0.82
297347,8.77,-1.48,17.33,1.36,8.73,1.09
297381,11.11,-3.79,18.90,1.45,8.73,1.34
297416,12.54,-6.76,21.56,1.35,8.73,1.54
297451,12.75,-7.34,24.60,1.19,8.73,1.64
297486,11.37,-8.82,27.41,1.08,8.73,1.68
297521,9.13,-8.20,29.47,1.03,8.73,1.72
297556,6.67,-7.44,31.01,1.02,8.73,1.82
297591,3.75,-9.42,31.29,0.96,8.73,2.04
297626,0.87,-10.83,32.12,0.75,8.73,2.21
297661,-2.60,-8.66,32.83,0.49,8.73,2.26
297696,-5.05,-6.98,30.67,0.30,8.73,2.14
297731,-6.32,-5.48,28.61,0.14,8.73,1.93
297766,-7.32,-2.97,25.73,0.06,8.73,1.66
297801,-5.82,-2.49,21.44,0.16,8.73,1.40
297837,-5.84,-1.37,18.50,0.32,8.73,1.21
297871,-2.48,1.57,16.35,0.47,8.73,1.02
297905,0.34,2.60,14.91,0.72,8.73,0.74
297939,1.65,2.38,14.20,1.05,8.73,0.64
297974,5.67,4.32,14.84,1.38,8.73,0.72
298009,9.00,-1.19,15.93,1.76,8.73,0.94
298044,11.97,-4.72,19.78,1.84,8.73,1.23
298079,13.36,-5.22,24.13,1.80,8.73,1.55
298114,12.89,-7.98,25.87,1.69,8.73,1.82
298149,11.02,-8.89,28.89,1.50,8.73,1.96
298183,8.59,-9.19,31.06,1.30,8.73,1.96
298218,5.98,-10.01,32.22,1.16,8.73,2.17
298253,2.83,-10.27,32.70,0.95,8.73,2.46
298288,-0.90,-10.69,31.89,0.69,8.73,2.59
298324,-3.40,-9.18,30.49,0.22,8.73,2.59
298359,-6.32,-6.00,29.46,0.01,8.73,2.33
298393,-7.73,-3.44,26.41,0.01,8.73,2.06
298428,-5.47,-2.66,22.11,0.09,8.73,1.81
298463,-5.26,-0.67,19.08,0.19,8.73,1.60
298498,-3.16,-0.62,15.95,0.35,8.73,1.45
298533,-0.37,-1.96,13.70,0.50,8.73,1.30
298568,2.04,-2.99,12.85,0.63,8.73,1.20
298603,5.24,-1.84,12.98,0.77,8.73,1.04
298643,7.64,2.04,14.72,1.12,8.73,0.95
298678,10.64,-1.02,16.40,1.36,8.73,1.01
298713,11.96,-2.50,19.06,1.52,8.73,1.15
298748,12.77,-4.72,22.79,1.55,8.73,1.31
298783,12.79,-5.97,25.06,1.62,8.73,1.47
298819,11.18,-7.60,27.59,1.56,8.73,1.63
298853,9.50,-8.09,29.50,1.41,8.73,1.68
298888,6.50,-7.57,31.09,1.31,8.73,1.79
298923,3.48,-7.22,31.44,1.23,8.73,1.85
298958,0.49,-6.61,30.84,1.29,8.73,1.85
298993,-2.44,-6.61,28.89,1.36,8.73,1.82
299028,-4.73,-7.40,25.53,1.33,8.66,1.96
299063,-5.88,-7.72,22.03,1.20,8.54,2.09
299098,-7.03,-6.69,19.69,1.08,8.48,2.17
299133,-6.53,-5.68,16.70,1.00,8.47,2.26
299168,-5.01,-5.29,14.00,0.87,8.44,2.34
299203,-5.07,-4.94,11.90,0.76,8.39,2.45
299238,-2.71,-5.33,10.36,0.55,8.39,2.47
299273,2.67,-4.44,9.77,0.30,8.36,2.45
299308,4.82,-4.38,10.30,0.16,8.40,2.23
299343,6.17,-3.49,10.37,0.04,8.51,2.00
299379,8.87,-2.67,14.06,-0.01,8.71,1.82
299413,9.84,-4.31,17.29,-0.01,8.73,1.62
299448,11.93,-3.08,20.89,-0.01,8.73,1.39
299483,11.89,-2.71,23.76,0.19,8.73,1.21
299518,10.78,-2.67,26.89,0.36,8.73,1.09
299553,9.57,-1.83,30.03,0.49,8.73,0.91
299588,7.14,-3.15,31.95,0.74,8.73,0.90
299623,4.32,-3.60,33.00,1.05,8.73,1.01
299658,1.43,-1.57,32.75,1.30,8.73,1.00
299693,-1.31,-1.93,30.02,1.62,8.73,1.00
299728,-5.57,-2.92,29.43,1.95,8.73,1.17
299763,-7.33,-4.87,26.43,2.09,8.73,1.45
299798,-7.96,-5.87,23.17,2.06,8.73,1.78
299834,-8.74,-6.72,19.98,1.80,8.73,2.00
299868,-6.01,-3.10,17.61,1.59,8.73,2.18
299903,-2.87,-4.65,14.37,1.48,8.73,2.36
299938,-0.07,-6.15,13.33,1.26,8.73,2.38
299973,2.07,-5.67,12.48,1.03,8.73,2.34
300008,6.02,-3.90,14.12,0.89,8.73,2.34
300043,9.16,-5.26,16.26,0.72,8.73,2.31
300078,11.93,-6.81,18.17,0.57,8.73,2.26
300113,13.47,-5.57,20.81,0.37,8.73,2.13
300148,13.02,-4.47,24.48,0.32,8.73,2.00
300183,11.09,-5.21,27.27,0.37,8.73,1.94
300218,9.24,-4.39,30.13,0.41,8.73,1.94
300253,6.47,-4.76,30.70,0.43,8.73,2.06
300288,3.51,-5.35,30.35,0.35,8.67,2.20
300324,-0.33,-7.13,30.71,0.05,8.52,2.36
300359,-2.97,-3.52,31.82,-0.32,8.61,2.24
300393,-3.97,-0.90,27.61,-0.35,8.66,1.92
300428,-6.88,-2.41,26.19,-0.29,8.70,1.55
300463,-8.60,1.41,25.38,-0.16,8.73,1.30
300498,-7.69,4.04,21.22,0.02,8.73,1.07
300533,-5.87,3.58,19.53,0.26,8.73,0.88
300568,-4.70,3.85,16.87,0.57,8.73,0.89
300603,-2.68,2.32,13.99,0.84,8.73,0.80
300638,0.95,1.47,14.38,1.05,8.73,0.82
300678,5.20,0.62,14.81,1.27,8.73,1.00
300713,8.38,-0.94,14.88,1.41,8.73,1.18
300748,11.43,-4.97,16.60,1.42,8.73,1.36
300783,12.81,-4.84,19.93,1.28,8.73,1.54
300818,12.36,-6.08,23.56,1.17,8.73,1.62
300853,11.24,-6.47,26.87,1.14,8.73,1.68
300888,9.89,-7.01,28.57,1.10,8.73,1.80
300923,6.63,-7.68,30.32,1.06,8.73,1.90
300957,3.36,-7.73,29.90,0.96,8.73,2.00
300992,1.25,-7.45,29.98,0.77,8.73,2.07
301027,-1.75,-6.80,31.06,0.67,8.73,2.08
301062,-4.72,-6.21,30.81,0.65,8.73,2.00
301097,-5.68,-6.25,27.94,0.63,8.73,1.96
301132,-6.85,-5.11,25.48,0.58,8.73,1.90
301167,-7.41,-4.70,22.07,0.54,8.73,1.83
301202,-6.96,-3.50,18.99,0.54,8.73,1.78
301237,-4.49,-3.24,16.05,0.61,8.73,1.81
301272,-1.86,-4.15,13.67,0.61,8.73,1.81
301307,2.66,-4.61,12.54,0.58,8.73,1.86
301343,6.46,-4.35,13.21,0.50,8.73,1.91
301378,7.65,-3.81,13.11,0.45,8.73,1.79
301412,9.49,-3.03,13.92,0.46,8.73,1.65
301447,10.69,-1.93,16.04,0.63,8.73,1.50
301482,12.06,-2.08,19.04,0.78,8.73,1.45
301517,13.12,-3.51,21.43,0.88,8.67,1.46
301552,12.30,-5.29,24.54,1.00,8.56,1.51
301587,10.97,-6.25,26.36,1.01,8.47,1.50
301622,9.07,-2.71,28.81,0.97,8.62,1.44
301657,3.69,-5.99,26.31,1.00,8.59,1.42
301692,1.70,-3.09,31.94,1.06,8.48,1.24
301727,-0.23,-2.58,28.97,1.21,8.65,1.19
301762,-3.09,-5.48,27.20,1.29,8.70,1.33
301797,-4.09,-4.41,24.10,1.28,8.67,1.51
301833,-5.65,-5.31,21.97,1.14,8.63,1.62
301867,-7.45,-3.38,20.37,1.12,8.63,1.67
301902,-7.73,-4.04,17.67,1.23,8.62,1.80
301937,-6.37,-5.16,14.67,1.26,8.59,1.99
301972,-5.77,-6.72,12.11,1.17,8.56,2.09
302007,-2.87,-6.09,10.21,1.01,8.62,2.06
302042,1.06,-4.82,11.22,0.92,8.70,1.91
302077,5.12,-3.48,11.79,0.96,8.72,1.76
302112,7.96,-4.10,12.67,1.00,8.73,1.72
302147,9.71,-3.92,15.05,1.03,8.72,1.75
302182,10.58,-4.85,17.84,0.98,8.73,1.81
302217,11.65,-6.68,21.22,0.91,8.73,1.80
302252,12.25,-5.38,24.52,0.78,8.70,1.76
302287,10.83,-5.77,27.43,0.75,8.70,1.73
302323,7.71,-4.51,28.54,0.71,8.69,1.68
302358,5.62,-5.10,29.26,0.68,8.60,1.75
302392,2.83,-5.55,30.85,0.60,8.67,1.75
302427,-0.29,-5.72,30.87,0.60,8.73,1.67
302462,-3.41,-3.97,29.23,0.63,8.73,1.55
302497,-5.37,-3.23,26.95,0.67,8.73,1.48
302532,-6.97,-3.81,24.29,0.68,8.73,1.45
302567,-8.38,-2.99,21.68,0.61,8.73,1.38
302602,-8.43,-0.59,19.70,0.54,8.73,1.25
302637,-5.59,1.66,16.95,0.55,8.73,1.06
302672,-2.37,2.20,13.86,0.70,8.73,0.88
302712,-0.75,2.14,11.82,0.93,8.73,0.78
302747,2.07,2.06,11.76,1.14,8.73,0.85
302782,4.37,1.17,11.15,1.39,8.73,0.90
302818,7.81,1.28,13.07,1.62,8.73,1.06
302852,11.09,-2.27,15.42,1.80,8.73,1.31
302887,12.05,-4.90,17.84,1.79,8.73,1.59
302922,13.15,-6.35,21.72,1.65,8.73,1.79
302957,10.91,-7.37,25.75,1.45,8.73,1.95
302992,9.77,-7.60,27.65,1.23,8.73,2.00
303027,6.57,-8.29,29.84,1.12,8.73,2.02
303062,3.51,-8.28,30.48,1.02,8.73,2.09
303097,1.12,-7.89,30.37,0.82,8.73,2.15
303132,-1.44,-8.29,30.65,0.66,8.73,2.14
303167,-4.24,-6.51,29.43,0.53,8.73,2.03
303202,-5.71,-5.64,27.29,0.50,8.73,1.90
303237,-6.61,-4.66,24.27,0.42,8.73,1.77
303272,-6.34,-3.61,20.93,0.42,8.73,1.63
303307,-5.09,-2.66,17.46,0.49,8.73,1.52
303342,-3.64,-2.49,14.29,0.60,8.73,1.45
303378,-2.05,-2.90,12.19,0.66,8.73,1.35
303412,0.18,-2.43,11.31,0.73,8.73,1.35
303447,4.05,-1.39,11.85,0.81,8.73,1.32
303482,6.24,-1.78,12.17,0.94,8.73,1.28
303517,8.51,-2.33,12.99,1.08,8.73,1.33
303552,10.20,-2.79,16.07,1.22,8.73,1.40
303587,11.09,-2.49,19.22,1.34,8.73,1.52
303622,12.47,-5.36,21.62,1.40,8.73,1.67
303657,12.69,-8.45,24.55,1.30,8.73,1.81
303692,10.95,-7.39,27.85,1.11,8.73,1.80
303727,8.06,-8.65,30.53,0.96,8.73,1.67
303762,5.19,-7.32,30.98,0.92,8.73,1.50
303797,1.99,-6.97,30.48,0.99,8.73,1.45
303833,-0.63,-6.65,29.54,1.01,8.69,1.51
303868,-3.37,-8.59,27.62,0.87,8.71,1.61
303902,-6.21,-7.16,26.43,0.57,8.73,1.69
303937,-6.99,-3.40,24.61,0.40,8.73,1.60
303972,-6.29,-1.94,20.98,0.34,8.73,1.42
304007,-5.63,0.48,18.01,0.35,8.73,1.18
304042,-5.36,3.76,16.63,0.51,8.73,1.04
304077,-0.85,1.97,14.41,0.74,8.73,0.98
304112,0.54,-0.36,12.59,0.96,8.73,1.03
304147,4.34,-2.34,14.06,1.07,8.73,1.23
304182,7.13,-2.36,14.94,1.25,8.73,1.30
304217,9.64,0.51,16.09,1.47,8.73,1.39
304252,11.59,-1.72,19.22,1.78,8.73,1.54
304287,12.39,-5.79,22.00,1.92,8.73,1.84
304322,11.41,-6.96,25.66,1.84,8.73,2.15
304357,9.92,-9.14,28.50,1.58,8.73,2.35
304392,7.87,-10.88,30.82,1.29,8.73,2.44
304427,5.33,-10.65,31.77,1.01,8.73,2.41
304462,2.95,-9.42,31.77,0.73,8.73,2.34
304497,-0.32,-7.54,31.62,0.58,8.73,2.28
304532,-3.72,-8.17,30.03,0.32,8.73,2.19
304567,-6.10,-6.75,28.64,0.02,8.73,2.03
304602,-8.54,-5.64,26.98,-0.18,8.73,1.78
304637,-8.56,-1.42,25.42,-0.22,8.73,1.51
304672,-9.12,1.83,23.72,-0.02,8.73,1.22
304707,-6.37,-0.12,20.25,0.30,8.73,1.13
304746,-0.92,0.60,18.60,0.64,8.73,1.10
304781,2.84,-0.13,17.48,0.81,8.73,1.10
304816,7.97,-3.53,16.78,1.02,8.73,1.19
304851,10.53,-1.53,18.31,1.16,8.73,1.29
304886,12.21,-7.07,21.39,1.16,8.73,1.47
304921,13.05,-5.75,25.42,1.14,8.73,1.53
304956,13.00,-7.21,27.50,1.19,8.73,1.65
304992,11.05,-7.17,30.65,1.18,8.73,1.78
305026,8.47,-6.73,32.24,1.20,8.73,1.94
305060,5.93,-8.87,32.19,1.19,8.73,2.26
305095,2.74,-11.41,32.55,0.95,8.73,2.48
305130,0.18,-8.82,33.93,0.76,8.73,2.48
305165,-3.00,-8.66,31.03,0.58,8.73,2.40
305200,-6.21,-7.16,29.25,0.40,8.73,2.25
305235,-6.89,-4.86,26.10,0.35,8.73,2.07
305270,-5.77,-4.81,21.68,0.41,8.73,1.90
305305,-4.93,-4.03,18.98,0.48,8.73,1.82
305340,-4.67,-2.51,17.47,0.55,8.73,1.81
305375,-0.76,-2.28,15.65,0.56,8.73,1.71
305410,3.72,-2.54,14.80,0.62,8.73,1.55
305445,6.44,-1.91,14.72,0.69,8.73,1.40
305480,8.38,-0.48,15.58,0.89,8.73,1.23
305515,10.09,-1.42,17.01,1.09,8.73,1.24
305550,11.91,-3.14,18.54,1.18,8.73,1.33
305585,13.72,-3.96,21.02,1.23,8.73,1.43
305620,13.12,-5.84,24.58,1.21,8.73,1.51
305655,10.88,-6.46,28.16,1.09,8.73,1.48
305690,8.04,-6.17,30.67,1.03,8.73,1.38
305725,4.16,-6.51,31.30,1.04,8.73,1.35
305760,1.57,-5.32,31.94,1.12,8.73,1.34
305795,-0.79,-6.20,32.04,1.29,8.73,1.43
305831,-2.65,-6.61,31.30,1.35,8.73,1.55
305865,-5.09,-5.47,30.39,1.42,8.73,1.66
305900,-5.19,-5.81,26.52,1.46,8.73,1.76
305935,-5.95,-7.81,22.87,1.38,8.73,1.87
305970,-8.17,-7.42,20.61,1.13,8.73,1.88
306005,-7.05,-2.69,18.74,0.93,8.73,1.81
