timestamp,accelX,accelY,accelZ,gyroX,gyroY,gyroZ
172315,-4.46,4.23,20.85,0.20,8.73,1.03
172349,-2.15,0.19,17.54,0.50,8.73,1.09
172385,0.77,-1.27,16.70,0.70,8.73,1.29
172419,5.52,-3.22,17.10,0.79,8.73,1.37
172454,10.35,-2.93,18.67,0.90,8.73,1.37
172490,12.34,-3.87,21.78,0.93,8.73,1.48
172524,12.73,-2.75,23.97,1.06,8.73,1.52
172559,13.61,-4.14,25.37,1.38,8.73,1.66
172594,12.02,-7.12,28.75,1.43,8.73,1.85
172629,9.17,-7.73,32.35,1.35,8.73,1.91
172664,8.33,-8.04,33.81,1.30,8.73,1.99
172704,2.15,-7.92,35.29,1.22,8.73,2.04
172739,1.00,-8.56,35.40,1.28,8.73,2.16
172774,-1.50,-8.02,35.05,1.26,8.73,2.30
172809,-7.27,-4.81,34.37,1.66,8.73,2.25
172844,-6.80,-8.41,29.82,2.11,8.73,2.44
172879,-2.80,-14.91,21.98,2.03,8.73,2.74
172914,-1.98,-11.94,17.12,1.65,8.73,2.89
172949,-1.56,-12.43,13.91,1.34,8.73,3.08
172984,-0.46,-8.86,12.99,0.96,8.73,2.97
173019,-0.30,-6.50,12.38,0.75,8.73,2.81
173054,2.25,-5.04,15.15,0.63,8.73,2.52
173089,4.43,0.65,15.69,0.95,8.73,2.04
173124,7.97,-1.35,19.08,1.22,8.73,1.97
173159,11.47,-2.21,25.11,1.54,8.73,2.05
173194,12.19,-7.64,28.33,1.50,8.73,2.18
173229,12.60,-8.77,31.30,1.10,8.73,2.16
173264,10.81,-6.60,34.77,0.94,8.73,2.04
173299,7.69,-6.27,37.40,0.88,8.73,2.09
173334,3.96,-9.01,38.11,0.86,8.73,2.25
173369,0.25,-6.72,40.43,0.62,8.73,2.42
173404,-2.64,-5.90,38.58,0.37,8.73,2.32
173439,-4.12,-3.57,35.38,0.47,8.73,2.11
173474,-7.94,-3.39,33.58,0.78,8.73,1.98
173509,-6.95,-5.55,29.14,0.96,8.73,2.06
173544,-2.93,-4.40,26.04,0.95,8.73,2.22
173579,-0.28,-6.30,22.08,0.94,8.73,2.34
173614,3.52,-7.83,19.54,0.84,8.73,2.33
173649,7.15,-6.04,21.19,0.73,8.73,2.24
173684,6.90,-7.22,20.35,0.56,8.73,2.20
173719,9.45,-7.90,22.78,0.47,8.73,2.17
173754,10.29,-4.97,28.22,0.45,8.73,1.96
173789,13.02,-7.33,32.09,0.44,8.73,1.83
173824,11.89,-6.56,36.55,0.57,8.73,1.73
173859,10.47,-6.24,40.58,0.71,8.73,1.76
173894,6.11,-7.81,41.56,0.82,8.73,1.81
173929,2.95,-5.77,40.65,0.94,8.73,1.88
173964,-0.40,-7.65,38.23,0.85,8.73,1.90
173999,-4.36,-4.78,38.70,0.87,8.73,1.85
174034,-6.19,-4.73,36.71,0.91,8.73,1.85
174069,-6.72,-5.01,32.30,0.90,8.73,1.87
174104,-4.48,-4.34,26.82,0.89,8.73,1.82
174139,-0.40,-1.88,23.53,0.95,8.73,1.79
174174,0.42,-0.85,21.12,1.01,8.73,1.63
174209,3.62,-0.82,20.79,1.11,8.73,1.66
174243,7.54,-2.94,21.86,1.15,8.73,1.76
174277,8.67,-1.89,22.32,1.30,8.73,1.84
174312,10.71,-3.36,26.66,1.30,8.73,1.92
174347,12.35,-6.60,29.35,1.38,8.73,2.07
174382,13.40,-6.83,33.33,1.44,8.73,2.19
174417,11.12,-7.73,37.03,1.30,8.73,2.27
174452,8.74,-9.43,38.48,1.17,8.73,2.21
174487,4.98,-9.09,40.15,1.10,8.73,2.11
174522,1.74,-6.15,39.67,1.14,8.73,1.95
174557,-1.72,-7.47,36.89,1.20,8.73,1.92
174592,-4.02,-5.26,35.24,1.31,8.73,1.98
174627,-4.72,-6.28,31.11,1.23,8.73,2.05
174662,-6.03,-6.83,28.40,1.18,8.73,2.16
174697,-6.73,-6.25,25.45,1.23,8.73,2.26
174737,-4.13,-8.69,21.83,1.09,8.73,2.41
174772,0.12,-8.60,19.96,0.95,8.73,2.47
174807,4.58,-6.37,20.46,0.72,8.73,2.46
174842,7.41,-9.02,20.06,0.56,8.73,2.37
174877,11.00,-6.78,22.66,0.55,8.73,2.21
174912,12.76,-5.65,25.96,0.56,8.73,2.03
174947,12.65,-6.04,30.59,0.55,8.73,1.94
174982,13.03,-8.35,33.32,0.65,8.73,1.86
175017,10.68,-5.76,36.97,0.66,8.73,1.70
175052,8.81,-5.69,38.73,0.70,8.73,1.55
175087,3.85,-6.81,39.36,0.87,8.73,1.59
175122,0.65,-4.41,39.84,0.93,8.73,1.68
175157,-2.79,-7.61,37.60,0.89,8.73,1.78
175192,-5.65,-5.13,35.22,0.84,8.73,1.79
175227,-5.09,-3.17,31.21,0.72,8.73,1.71
175262,-5.33,-1.54,27.59,0.73,8.73,1.63
175297,-4.93,-2.11,23.98,0.88,8.73,1.50
175332,-3.01,0.15,21.74,0.86,8.73,1.34
175367,1.18,-0.42,20.87,1.06,8.73,1.40
175402,5.09,0.04,20.95,1.20,8.73,1.40
175437,7.56,-0.84,20.68,1.17,8.73,1.61
175472,10.86,-5.60,22.02,1.28,8.73,1.78
175507,12.36,-4.83,26.46,1.08,8.73,1.82
175542,14.03,-7.06,29.29,0.99,8.73,1.86
175577,12.45,-8.19,32.87,1.04,8.73,1.83
175612,11.17,-6.15,34.87,0.90,8.73,1.76
175647,7.57,-7.48,36.76,0.96,8.73,1.74
175682,5.25,-6.62,39.11,0.96,8.73,1.77
175717,0.67,-7.86,37.92,0.96,8.73,1.88
175752,-2.51,-4.91,36.36,0.99,8.73,1.88
175787,-5.18,-5.34,34.81,0.91,8.73,1.89
175822,-5.73,-4.65,31.21,0.98,8.73,1.92
175857,-4.74,-3.95,27.06,1.01,8.73,1.91
175892,-5.10,-6.97,22.59,1.00,8.73,2.03
175927,-3.50,-2.65,21.27,1.07,8.73,2.09
175962,0.03,-5.70,19.21,0.92,8.73,2.08
175997,3.44,-5.94,18.47,0.89,8.73,2.12
176032,6.79,-4.15,18.97,0.92,8.73,1.96
176067,9.92,-6.91,20.12,0.76,8.73,1.98
176102,11.83,-3.73,24.54,0.79,8.73,1.91
176137,12.73,-6.17,26.73,0.84,8.73,1.86
176171,12.98,-4.09,29.77,0.88,8.73,1.81
176206,11.70,-7.43,32.59,0.93,8.73,1.91
176241,8.91,-5.77,35.34,0.95,8.73,1.94
176276,5.17,-8.72,35.98,0.90,8.73,2.02
176311,2.41,-6.04,36.45,0.85,8.73,1.98
176346,-0.69,-6.87,34.61,0.79,8.73,1.95
176381,-3.31,-3.49,33.45,0.85,8.73,1.85
176416,-5.64,-4.58,31.24,1.02,8.73,1.82
176451,-8.65,-3.34,30.60,1.03,8.73,1.82
176486,-6.83,-5.50,25.89,1.00,8.73,1.84
176521,-4.31,-3.24,21.45,0.91,8.73,1.88
176556,-1.09,-2.22,18.09,1.01,8.73,1.90
176591,1.02,-1.37,16.87,0.94,8.73,1.81
176626,4.52,-3.34,17.40,0.97,8.73,1.83
176661,6.27,-2.70,17.83,0.96,8.73,1.82
176696,9.45,-3.06,19.41,0.97,8.73,1.85
176731,11.81,-5.57,22.37,0.92,8.73,1.90
176771,12.06,-4.60,26.12,0.94,8.73,1.87
176806,12.35,-6.60,28.64,0.93,8.73,1.91
176841,10.67,-6.54,32.12,0.97,8.73,1.93
176876,7.96,-7.56,34.47,0.88,8.73,2.01
176911,6.10,-6.98,36.02,0.85,8.73,2.05
176946,1.23,-6.77,36.48,0.84,8.73,1.99
176981,-1.78,-6.85,35.07,0.86,8.73,1.88
177016,-3.74,-5.73,33.15,0.86,8.73,1.82
177051,-5.61,-4.98,30.21,0.94,8.73,1.80
177086,-6.43,-3.48,26.99,0.91,8.73,1.80
177121,-6.60,-3.05,24.51,0.87,8.73,1.75
177156,-4.61,-3.61,20.56,0.95,8.73,1.73
177191,-2.35,-2.03,18.16,0.88,8.73,1.64
177226,2.39,-2.17,16.25,0.99,8.73,1.66
177261,7.23,-3.56,17.11,1.00,8.73,1.65
177296,9.69,-3.28,17.88,1.04,8.73,1.65
177331,10.92,-3.87,17.82,1.11,8.73,1.69
177366,11.13,-2.40,20.15,1.18,8.73,1.73
177401,10.67,-3.32,25.01,1.29,8.73,1.88
177436,10.96,-6.58,28.20,1.35,8.73,2.09
177471,10.99,-7.55,31.62,1.31,8.73,2.27
177506,7.93,-9.77,33.60,1.17,8.73,2.38
177541,4.51,-9.18,35.17,0.97,8.73,2.35
177576,2.74,-7.92,34.95,0.84,8.73,2.28
177611,-1.38,-6.09,34.20,0.85,8.73,2.10
177646,-4.33,-6.03,32.15,0.94,8.73,1.98
177681,-5.53,-6.29,30.46,1.07,8.73,1.94
177716,-5.83,-5.77,26.29,1.03,8.73,1.97
177751,-7.33,-5.66,22.57,1.03,8.73,1.98
177786,-4.67,-3.20,20.02,0.96,8.73,2.03
177821,-2.21,-4.02,17.53,0.94,8.73,1.94
177856,0.23,-4.07,15.44,0.89,8.73,1.84
177890,3.50,-3.22,15.91,0.89,8.73,1.75
177925,5.86,-3.53,15.32,0.97,8.73,1.67
177960,8.71,-2.21,16.65,1.00,8.73,1.65
177995,10.65,-2.90,20.86,1.08,8.73,1.68
178030,11.72,-5.53,23.98,1.05,8.73,1.71
178065,13.16,-5.44,26.80,1.00,8.73,1.70
178100,11.84,-5.73,30.09,0.97,8.73,1.69
178135,8.00,-7.64,32.32,0.95,8.73,1.65
178170,4.94,-7.07,33.95,0.91,8.73,1.64
178205,3.34,-5.77,34.63,0.96,8.73,1.63
178240,0.41,-6.79,33.55,1.02,8.73,1.69
178275,-3.06,-4.75,32.35,1.02,8.73,1.68
178310,-5.74,-4.56,29.93,1.02,8.73,1.70
178345,-7.16,-5.14,26.71,0.93,8.73,1.73
178380,-6.97,-3.68,23.67,0.78,8.73,1.65
178415,-6.13,-1.12,20.77,0.66,8.73,1.49
178451,-2.15,0.04,17.50,0.68,8.73,1.29
178485,-0.84,0.48,16.06,0.78,8.73,1.12
178520,1.74,1.76,15.48,0.91,8.73,1.12
178555,5.49,-0.56,15.78,1.08,8.73,1.23
178590,6.59,-3.37,14.84,1.02,8.73,1.44
178625,9.50,-1.75,18.39,0.99,8.73,1.59
178660,11.29,-5.37,21.59,1.00,8.73,1.65
178695,12.95,-5.22,24.60,1.00,8.73,1.65
178730,12.10,-5.27,28.18,1.02,8.73,1.65
178765,9.69,-6.85,30.79,1.04,8.73,1.68
178805,8.59,-5.87,33.30,1.07,8.73,1.66
178840,5.07,-6.81,34.09,1.07,8.73,1.63
178875,0.23,-6.35,33.56,1.08,8.73,1.64
178910,-1.99,-5.09,32.13,1.15,8.73,1.63
178945,-4.48,-5.61,30.41,1.20,8.73,1.67
178980,-6.10,-5.45,28.13,1.21,8.73,1.74
179015,-6.80,-4.82,24.96,1.18,8.73,1.79
179050,-7.91,-5.46,21.55,1.09,8.73,1.80
179085,-7.94,-5.09,18.97,1.00,8.73,1.83
179120,-4.16,-2.72,16.62,0.90,8.73,1.78
179155,-0.29,-0.33,15.01,0.88,8.73,1.70
179190,2.46,-1.65,14.42,0.93,8.73,1.61
179225,6.18,-2.83,15.05,0.95,8.73,1.58
179260,8.99,-2.04,17.00,0.95,8.73,1.61
179295,11.23,-3.61,19.27,1.00,8.73,1.64
179330,12.19,-5.95,21.86,0.98,8.73,1.66
179365,12.49,-4.87,24.79,0.89,8.73,1.64
179400,11.48,-5.95,28.01,0.92,8.73,1.61
179435,9.87,-6.30,30.62,0.91,8.73,1.56
179470,7.35,-6.05,32.49,0.91,8.73,1.52
179505,4.73,-4.87,33.88,0.97,8.73,1.50
179540,1.02,-5.19,33.89,1.08,8.73,1.58
179575,-2.52,-5.33,32.40,1.10,8.73,1.64
179610,-4.70,-5.37,30.41,1.12,8.73,1.69
179645,-6.55,-4.47,28.30,1.22,8.73,1.76
179680,-6.60,-4.02,25.65,1.35,8.73,1.88
179715,-6.03,-5.08,22.20,1.38,8.73,2.05
179750,-5.40,-4.52,19.03,1.29,8.73,2.18
179785,-4.85,-4.08,15.63,1.18,8.73,2.20
179820,0.24,-4.52,15.31,0.99,8.73,2.05
179855,3.79,-1.55,14.78,0.93,8.73,1.86
179890,7.07,-4.01,14.71,0.89,8.73,1.88
179925,9.26,-6.22,16.02,0.71,8.73,1.98
179960,11.21,-5.38,19.51,0.51,8.73,1.95
179995,12.30,-4.19,22.48,0.44,8.73,1.83
180030,13.01,-4.07,25.09,0.51,8.73,1.77
180065,11.82,-4.86,28.48,0.63,8.73,1.82
180100,9.37,-3.68,31.79,0.68,8.73,1.82
180135,6.30,-4.30,33.06,0.71,8.73,1.88
180170,3.08,-6.56,33.09,0.69,8.73,2.00
180205,0.45,-6.12,33.24,0.59,8.73,1.92
180240,-2.48,-4.55,32.98,0.61,8.73,1.79
180275,-5.52,-1.98,31.42,0.77,8.73,1.68
180310,-6.51,-3.88,27.42,0.96,8.73,1.63
180346,-6.52,-4.80,24.45,1.09,8.73,1.68
180380,-5.08,-4.81,20.53,1.12,8.73,1.76
180415,-4.84,-4.13,18.42,1.01,8.73,1.72
180450,-2.53,-0.26,16.94,0.97,8.73,1.62
180485,0.97,0.32,15.46,1.08,8.73,1.52
180520,3.75,-1.80,15.07,1.16,8.73,1.56
180555,6.45,-0.62,15.96,1.22,8.73,1.58
180590,10.63,-3.34,17.93,1.35,8.73,1.65
180625,13.61,-4.17,21.22,1.36,8.73,1.75
180660,13.75,-5.10,23.96,1.41,8.73,1.85
180695,12.43,-5.41,25.74,1.33,8.73,1.99
180730,10.32,-6.34,28.08,1.27,8.73,2.12
180765,7.40,-7.98,30.01,1.14,8.73,2.22
180800,5.33,-7.91,32.28,0.96,8.73,2.20
180840,1.97,-8.05,33.44,0.82,8.73,2.20
180875,-1.05,-5.22,34.07,0.78,8.73,2.05
180910,-3.54,-5.51,31.79,0.82,8.73,1.90
180945,-6.26,-6.05,30.27,0.89,8.73,1.85
180980,-6.23,-4.54,26.07,0.91,8.73,1.87
181015,-6.65,-4.58,22.26,0.96,8.73,1.88
181050,-6.78,-5.52,19.12,0.90,8.73,1.91
181085,-4.36,-2.58,17.55,0.80,8.73,1.85
181120,-1.95,0.66,15.72,0.78,8.73,1.59
181155,1.60,-0.91,14.78,0.89,8.73,1.45
181190,5.78,-2.09,14.64,0.95,8.73,1.49
181225,8.86,-1.68,15.82,1.00,8.73,1.52
181260,11.64,-4.54,17.79,1.02,8.73,1.60
181295,12.60,-4.97,20.95,0.92,8.73,1.64
181330,12.73,-5.04,23.01,0.94,8.73,1.62
181365,12.66,-4.73,24.95,0.99,8.73,1.62
181400,10.27,-5.51,27.95,0.99,8.73,1.61
181435,8.18,-5.53,30.59,1.03,8.73,1.62
181470,4.77,-8.07,32.72,1.03,8.73,1.73
181505,1.86,-7.15,33.12,1.04,8.73,1.79
181540,-0.94,-5.46,32.78,1.11,8.73,1.76
181575,-3.66,-5.11,30.92,1.16,8.73,1.75
181610,-4.98,-5.26,27.97,1.30,8.73,1.77
181645,-6.16,-5.06,25.36,1.40,8.73,1.86
181680,-7.33,-6.17,22.19,1.39,8.73,1.99
181715,-7.06,-7.48,18.89,1.29,8.73,2.12
181750,-5.64,-6.09,16.12,1.05,8.73,2.13
181785,-1.57,-2.45,14.25,0.88,8.73,1.97
181820,3.28,-1.70,14.19,0.84,8.73,1.87
181855,6.17,-2.37,13.71,0.84,8.73,1.77
181890,7.49,-3.86,13.92,0.78,8.73,1.80
181925,10.31,-5.51,16.93,0.69,8.73,1.79
181960,11.22,-3.53,18.80,0.66,8.73,1.74
181995,11.99,-2.25,21.89,0.75,8.73,1.68
182030,11.44,-5.62,24.44,0.85,8.73,1.70
182065,11.07,-4.29,27.65,0.87,8.73,1.76
182100,8.90,-5.75,30.15,0.86,8.73,1.79
182135,6.54,-6.36,31.53,0.82,8.73,1.79
182170,3.70,-4.17,32.83,0.83,8.73,1.61
182205,0.27,-4.33,32.53,0.97,8.73,1.45
182240,-3.06,-4.43,31.09,1.15,8.73,1.43
182275,-5.40,-4.50,28.64,1.30,8.73,1.49
182310,-6.72,-5.95,25.15,1.32,8.73,1.61
182345,-5.98,-4.40,21.52,1.25,8.73,1.69
182380,-5.79,-3.13,18.63,1.17,8.73,1.73
182415,-4.98,-1.90,16.30,1.10,8.73,1.71
182450,-4.83,-3.67,14.44,1.06,8.73,1.71
182485,-3.08,-3.81,12.70,1.03,8.73,1.71
182520,1.57,-3.94,13.00,1.00,8.73,1.77
182555,5.86,-4.50,13.63,0.96,8.73,1.78
182590,8.88,-2.45,14.30,0.93,8.73,1.78
182625,11.03,-2.16,16.61,1.02,8.73,1.77
182660,12.38,-3.88,19.47,1.05,8.73,1.81
182695,12.75,-4.76,22.23,1.05,8.73,1.88
182730,11.87,-6.75,25.14,1.04,8.73,1.97
182765,10.56,-5.55,28.65,0.91,8.73,1.93
182800,7.46,-5.50,31.50,0.87,8.73,1.85
182835,4.67,-6.46,32.59,0.84,8.73,1.79
182875,0.68,-4.70,32.88,0.81,8.73,1.64
182910,-2.06,-5.66,31.09,0.88,8.73,1.60
182945,-4.60,-5.43,28.97,0.84,8.73,1.63
182980,-6.36,-4.26,26.62,0.67,8.73,1.63
183015,-6.03,-3.04,23.17,0.52,8.73,1.55
183050,-6.57,-0.90,21.00,0.35,8.73,1.32
183085,-6.79,2.40,19.11,0.37,8.73,1.10
183120,-4.53,1.97,16.52,0.52,8.73,1.00
183155,-0.07,1.96,14.23,0.71,8.73,0.87
183190,0.66,2.78,13.04,0.91,8.73,0.98
183225,5.49,0.49,14.85,1.04,8.73,1.18
183260,9.36,-2.15,15.67,1.13,8.73,1.34
183295,11.69,-3.66,17.96,1.12,8.73,1.45
183330,12.46,-4.43,20.58,1.06,8.73,1.48
183365,12.91,-5.09,23.51,0.97,8.73,1.46
183400,11.45,-6.92,26.25,0.93,8.73,1.39
183435,9.04,-7.07,28.46,0.83,8.73,1.20
183470,6.72,-5.97,30.46,0.86,8.73,0.99
183505,4.30,-4.86,32.53,0.99,8.73,1.01
183540,2.04,-3.94,32.62,1.18,8.73,1.10
183575,-0.43,-4.64,31.88,1.28,8.73,1.30
183610,-4.37,-5.79,29.78,1.25,8.73,1.51
183645,-6.00,-5.72,27.00,1.14,8.73,1.65
183680,-6.39,-4.18,24.47,1.03,8.73,1.70
183715,-7.21,-3.97,22.09,1.04,8.73,1.74
183750,-6.63,-5.20,18.81,1.09,8.73,1.86
183785,-3.55,-6.42,15.29,1.09,8.73,2.04
183820,-1.30,-6.13,13.32,0.98,8.73,2.19
183855,0.54,-5.11,13.08,0.83,8.73,2.23
183890,4.66,-4.49,13.63,0.75,8.73,2.18
183925,7.13,-5.69,14.39,0.60,8.73,2.14
183960,9.96,-4.39,17.03,0.57,8.73,2.02
183995,11.84,-4.30,19.90,0.54,8.73,1.93
184030,13.14,-5.07,22.68,0.49,8.73,1.82
184065,13.10,-5.27,25.54,0.49,8.73,1.77
184100,11.71,-4.55,28.73,0.51,8.73,1.72
184135,9.21,-4.60,31.15,0.59,8.73,1.75
184170,5.63,-5.38,31.82,0.62,8.73,1.92
184205,2.20,-6.72,32.13,0.51,8.73,2.10
184240,-0.48,-6.16,31.34,0.21,8.73,2.15
184275,-3.22,-5.28,30.61,0.02,8.73,1.98
184310,-5.32,-2.90,29.80,-0.04,8.73,1.75
184345,-6.00,-1.36,26.36,-0.04,8.73,1.49
184380,-7.23,-1.64,23.26,0.01,8.73,1.23
184415,-6.87,0.53,20.61,0.06,8.73,0.98
184450,-4.17,3.29,17.80,0.27,8.73,0.83
184485,-3.83,4.35,15.82,0.56,8.73,0.68
184521,-0.04,2.27,13.90,0.83,8.73,0.85
184555,3.38,-0.25,14.41,0.98,8.73,1.11
184590,6.17,-2.53,15.07,1.00,8.73,1.34
184625,8.92,-4.25,17.45,0.96,8.73,1.48
184660,11.58,-4.53,19.68,0.97,8.73,1.52
184695,13.93,-3.70,22.50,1.06,8.73,1.54
184730,13.87,-4.36,25.29,1.19,8.73,1.63
184765,11.51,-5.48,27.90,1.24,8.73,1.79
184800,8.31,-6.93,30.26,1.21,8.73,1.91
184835,4.89,-6.90,31.82,1.11,8.73,1.97
184870,2.24,-6.75,32.82,1.04,8.73,1.90
184910,0.34,-6.66,32.61,1.19,8.73,1.79
184945,-3.19,-5.83,31.05,1.34,8.73,1.74
184979,-5.31,-5.15,28.80,1.48,8.73,1.80
185014,-6.48,-6.60,24.81,1.64,8.73,1.96
185049,-6.54,-8.37,20.73,1.63,8.73,2.18
185084,-6.13,-8.18,17.98,1.48,8.73,2.37
185119,-3.96,-4.86,15.79,1.21,8.73,2.38
185154,-2.79,-4.32,13.83,1.03,8.73,2.26
185189,1.20,-5.59,13.21,0.87,8.73,2.13
185224,4.73,-4.81,13.64,0.83,8.73,1.96
185259,7.21,-3.48,13.96,0.83,8.73,1.81
185294,9.98,-1.39,15.40,0.95,8.73,1.65
185329,11.17,-1.02,17.94,1.14,8.73,1.61
185364,11.80,-1.40,21.05,1.21,8.73,1.67
185399,12.46,-4.61,23.85,1.17,8.73,1.73
185434,12.41,-5.87,26.07,1.02,8.73,1.76
185469,10.30,-4.54,28.81,0.89,8.73,1.67
185504,7.74,-4.27,31.14,0.85,8.73,1.55
185538,4.36,-4.82,31.91,0.91,8.73,1.51
185573,1.26,-3.78,32.68,0.97,8.73,1.53
185608,-1.67,-4.29,31.05,1.01,8.73,1.57
185643,-4.14,-4.79,28.44,1.04,8.73,1.63
185678,-6.10,-3.88,26.26,1.08,8.73,1.66
185713,-7.15,-3.69,23.92,1.02,8.73,1.72
185748,-7.85,-2.54,21.14,0.96,8.73,1.75
185782,-7.59,-0.55,18.75,0.90,8.73,1.77
185818,-4.27,0.07,15.34,0.91,8.73,1.80
185852,-1.20,-2.43,12.68,0.90,8.73,1.80
185887,2.48,-5.57,11.60,0.80,8.73,1.87
185922,5.25,-6.03,12.03,0.68,8.73,1.95
185957,7.15,-5.49,13.18,0.54,8.73,1.96
185992,9.31,-5.40,15.54,0.50,8.73,1.87
186027,10.58,-4.15,18.25,0.51,8.73,1.76
186062,11.49,-2.68,21.64,0.60,8.73,1.67
186097,11.41,-2.58,25.00,0.75,8.73,1.65
186132,10.76,-5.59,27.70,0.79,8.73,1.64
186167,8.83,-6.11,29.83,0.76,8.73,1.55
186202,6.23,-5.32,31.13,0.76,8.73,1.43
186237,3.61,-4.47,32.06,0.87,8.73,1.29
186272,0.71,-4.01,32.38,1.01,8.73,1.29
186307,-2.14,-3.95,30.65,1.09,8.73,1.39
186343,-4.78,-4.29,28.41,1.10,8.73,1.50
186377,-6.54,-2.78,25.87,1.19,8.73,1.56
186412,-7.71,-3.12,22.62,1.23,8.73,1.64
186447,-7.58,-2.30,19.71,1.19,8.73,1.73
186482,-5.00,-2.05,16.73,1.13,8.73,1.80
186517,-3.13,-1.66,14.24,1.05,8.73,1.75
186552,-1.24,-0.32,12.75,1.00,8.73,1.63
186587,3.12,-0.30,12.80,1.01,8.73,1.50
186622,5.73,-0.57,12.73,1.11,8.73,1.44
186657,7.18,-3.03,12.31,1.10,8.73,1.56
186692,9.45,-5.04,15.15,1.01,8.73,1.69
186727,10.35,-5.55,17.58,0.87,8.73,1.75
186762,11.85,-4.23,21.29,0.78,8.73,1.76
186797,11.03,-4.64,24.75,0.79,8.73,1.75
186832,9.97,-5.02,28.02,0.85,8.73,1.80
186867,8.13,-5.64,29.94,0.87,8.73,1.81
186902,5.05,-6.50,30.13,0.84,8.73,1.84
186942,2.27,-5.82,29.64,0.70,8.69,1.83
186977,-0.59,-4.18,30.97,0.69,8.73,1.72
187012,-3.22,-3.33,29.79,0.79,8.73,1.61
187047,-4.98,-2.28,27.70,0.96,8.73,1.55
187082,-5.89,-3.25,23.66,1.11,8.73,1.58
187117,-5.80,-5.36,19.57,1.11,8.73,1.65
187152,-6.12,-3.83,17.03,1.05,8.69,1.67
187187,-5.95,-4.79,14.94,1.03,8.70,1.72
187222,-4.16,-5.17,13.13,1.00,8.73,1.70
187257,-2.83,-5.05,11.67,0.97,8.73,1.75
187292,1.34,-4.64,10.64,0.94,8.73,1.80
187328,4.84,-4.27,11.59,0.96,8.73,1.74
187362,7.84,-3.03,13.17,1.01,8.73,1.67
187397,10.60,-1.68,15.78,1.15,8.73,1.67
187432,11.57,-3.42,18.63,1.21,8.73,1.73
187467,12.35,-4.83,22.17,1.20,8.73,1.82
187502,11.73,-5.29,25.42,1.11,8.73,1.93
187538,9.49,-7.43,27.33,0.99,8.73,1.95
187572,7.07,-8.13,28.59,0.93,8.73,1.98
187607,4.21,-8.36,30.21,0.84,8.73,2.04
187642,1.89,-7.42,30.66,0.73,8.73,2.04
187677,-0.81,-5.05,30.26,0.65,8.73,1.95
187712,-3.64,-4.44,28.85,0.69,8.73,1.81
187747,-4.46,-3.02,26.70,0.80,8.73,1.71
187782,-5.76,-3.16,23.48,0.90,8.73,1.66
187818,-7.35,-5.04,20.19,0.87,8.68,1.63
187852,-7.86,-3.97,17.18,0.74,8.67,1.52
187887,-7.34,-1.93,15.31,0.61,8.73,1.31
187922,-3.80,1.40,13.35,0.60,8.73,1.01
187957,-1.14,3.39,12.83,0.74,8.73,0.80
187992,1.90,2.04,12.73,0.96,8.73,0.85
188027,4.48,-0.54,12.75,1.04,8.73,1.09
188062,7.39,-1.92,13.77,1.07,8.73,1.28
188097,9.98,-3.32,16.12,1.02,8.73,1.38
188132,11.36,-4.13,19.61,0.89,8.73,1.40
188167,12.20,-4.40,22.41,0.81,8.73,1.34
188202,11.49,-5.31,25.05,0.82,8.73,1.30
188237,9.43,-6.26,27.11,0.80,8.73,1.19
188272,7.79,-5.38,28.47,0.87,8.71,1.10
188307,5.13,-6.31,29.27,0.96,8.67,1.10
188343,2.76,-6.15,29.58,1.10,8.69,1.16
188377,0.09,-5.26,30.06,1.27,8.69,1.20
188412,-3.06,-5.30,28.28,1.34,8.71,1.32
188447,-5.04,-5.09,26.09,1.37,8.69,1.46
188482,-7.44,-5.88,24.07,1.27,8.69,1.62
188517,-7.57,-5.32,21.33,1.16,8.71,1.72
188552,-6.40,-3.39,18.58,1.06,8.73,1.76
188587,-5.98,-1.27,16.19,0.98,8.73,1.79
188623,-5.01,-1.27,14.09,0.95,8.73,1.82
188657,-0.89,-1.07,12.69,0.91,8.73,1.88
188692,2.83,-2.04,12.12,0.83,8.73,1.93
188727,5.61,-3.06,11.27,0.75,8.70,1.90
188762,7.88,-2.28,12.49,0.68,8.69,1.86
188797,10.07,-2.51,14.71,0.72,8.71,1.77
188832,11.88,-2.97,17.08,0.84,8.70,1.73
188867,13.10,-4.56,20.31,0.88,8.71,1.74
188902,12.27,-4.58,23.31,0.89,8.70,1.79
188937,11.37,-4.87,26.15,0.89,8.69,1.84
188977,7.73,-5.93,28.38,0.83,8.69,1.83
189012,5.14,-5.56,29.68,0.80,8.68,1.89
189047,2.30,-5.66,30.72,0.75,8.73,1.93
189082,-0.76,-5.88,30.65,0.63,8.73,1.90
189117,-3.40,-4.53,29.25,0.56,8.73,1.81
189152,-6.55,-3.46,29.26,0.58,8.73,1.71
189187,-7.58,-3.15,26.39,0.68,8.73,1.61
189222,-7.01,-3.17,22.69,0.77,8.73,1.58
189257,-6.06,-1.49,19.55,0.76,8.73,1.52
189292,-4.90,-0.31,16.41,0.78,8.73,1.46
189327,-2.26,-0.32,13.92,0.79,8.73,1.30
189361,0.35,1.10,12.86,0.87,8.73,1.13
189397,1.76,-1.51,12.25,0.97,8.73,1.17
189431,3.66,-2.93,11.30,1.00,8.73,1.30
189466,6.83,-4.20,12.33,0.93,8.73,1.47
189501,10.01,-5.21,15.13,0.75,8.73,1.58
189536,11.80,-6.53,19.07,0.53,8.73,1.54
189571,12.35,-5.32,22.69,0.43,8.73,1.40
189606,12.03,-4.90,25.14,0.52,8.73,1.28
189640,10.37,-4.67,27.08,0.62,8.73,1.24
189675,7.93,-5.77,28.82,0.75,8.73,1.24
189710,5.36,-5.57,30.86,0.85,8.73,1.39
189745,2.14,-6.95,31.47,0.89,8.73,1.55
189780,-0.52,-6.45,31.06,0.87,8.73,1.65
189815,-3.30,-5.00,30.31,0.84,8.73,1.64
189850,-5.38,-3.80,28.70,0.82,8.73,1.67
189885,-6.34,-3.67,24.94,0.84,8.73,1.67
189920,-6.42,-3.15,21.26,0.85,8.73,1.65
189955,-6.55,-2.53,18.48,0.84,8.73,1.66
189990,-5.49,-1.60,16.56,0.82,8.73,1.66
190025,-3.27,-0.42,14.82,0.80,8.73,1.63
190060,0.46,-0.18,13.63,0.83,8.73,1.68
190094,3.17,-0.14,13.44,0.80,8.73,1.72
190129,6.14,-1.17,13.25,0.79,8.73,1.72
190164,8.81,-1.42,14.66,0.82,8.73,1.70
190199,10.31,-3.27,16.59,0.91,8.73,1.67
190234,11.68,-3.68,19.61,0.94,8.73,1.68
190270,12.29,-4.66,22.79,0.91,8.73,1.70
190304,11.36,-5.44,26.04,0.90,8.73,1.70
190339,9.82,-6.07,28.06,0.86,8.73,1.64
190374,6.97,-6.22,30.12,0.86,8.73,1.66
190409,4.32,-6.16,30.77,0.85,8.73,1.67
190444,1.08,-6.75,31.20,0.80,8.73,1.68
190479,-1.80,-6.29,30.80,0.70,8.73,1.71
190514,-4.51,-4.78,29.11,0.65,8.73,1.71
190548,-6.61,-3.96,27.69,0.63,8.73,1.67
190582,-7.89,-3.79,25.57,0.68,8.73,1.68
190617,-7.63,-3.70,22.65,0.71,8.73,1.63
190652,-6.68,-3.37,19.54,0.79,8.73,1.65
190687,-4.48,-5.16,15.80,0.87,8.73,1.75
190721,-0.79,-6.25,13.82,0.85,8.73,1.74
190756,3.15,-4.76,12.02,0.81,8.73,1.85
190791,6.58,-2.68,12.97,0.73,8.73,1.89
190826,7.54,-1.31,12.47,0.74,8.73,1.79
190861,9.09,-2.76,13.93,0.74,8.73,1.77
190896,9.79,-1.60,16.56,0.78,8.73,1.76
190931,9.86,-3.78,20.55,0.91,8.73,1.70
190966,11.57,-4.21,24.21,0.82,8.73,1.70
191006,11.18,-5.81,28.88,0.85,8.73,1.65
191041,8.40,-6.81,30.89,0.82,8.73,1.56
191076,4.83,-6.97,30.24,0.80,8.73,1.49
191111,2.47,-5.70,31.51,0.82,8.73,1.46
191146,-0.41,-6.05,32.67,0.93,8.73,1.47
191181,-3.20,-5.38,30.59,0.84,8.73,1.63
191216,-6.11,-5.04,29.83,0.76,8.73,1.68
191252,-6.78,-3.89,27.07,0.79,8.73,1.66
191286,-6.31,-2.98,23.35,0.86,8.73,1.65
191321,-6.18,-1.90,20.33,0.92,8.73,1.65
191356,-4.07,-2.40,16.86,0.96,8.73,1.68
191391,-3.79,-2.68,14.88,1.01,8.73,1.69
191426,-0.96,-2.75,13.37,1.00,8.73,1.64
191461,1.85,-1.91,11.81,1.01,8.73,1.53
191496,5.83,0.80,13.59,1.17,8.73,1.41
191530,8.48,1.76,15.32,1.32,8.73,1.39
191564,11.09,0.28,18.21,1.57,8.73,1.48
191599,10.96,-2.75,20.18,1.58,8.73,1.67
191634,11.77,-5.16,23.18,1.54,8.73,1.85
191669,11.66,-7.75,25.86,1.29,8.73,1.97
191704,10.65,-6.63,28.86,1.11,8.73,1.92
191739,8.26,-7.86,30.79,1.05,8.73,1.89
191774,5.45,-5.86,32.20,1.01,8.73,1.84
191809,2.43,-6.25,32.55,0.99,8.73,1.79
191844,-0.36,-5.67,31.09,1.03,8.73,1.73
191879,-3.44,-5.92,29.01,1.07,8.73,1.67
191914,-5.66,-4.75,26.44,1.14,8.73,1.66
191949,-6.93,-6.85,23.48,1.10,8.73,1.74
191984,-7.01,-5.03,20.55,1.00,8.73,1.73
192019,-6.60,-4.48,18.08,0.96,8.73,1.75
192054,-5.80,-5.31,14.99,0.90,8.73,1.72
192088,-3.69,-3.97,13.31,0.84,8.73,1.63
192122,0.82,-3.75,13.44,0.85,8.73,1.61
192156,4.26,-4.42,13.01,0.83,8.73,1.69
192190,7.32,-4.68,12.98,0.75,8.73,1.74
192225,10.19,-5.40,14.87,0.69,8.73,1.77
192260,11.83,-5.01,18.51,0.61,8.73,1.69
192295,12.77,-4.10,20.59,0.67,8.73,1.60
192330,12.85,-3.46,23.16,0.73,8.73,1.55
192365,11.37,-5.05,25.60,0.81,8.73,1.59
192400,9.96,-5.61,27.57,0.81,8.73,1.57
192435,6.92,-6.36,29.49,0.83,8.73,1.59
192470,4.14,-6.75,30.56,0.82,8.70,1.61
192505,1.17,-6.39,30.52,0.80,8.69,1.65
192540,-1.13,-5.90,29.56,0.76,8.71,1.68
192575,-3.74,-5.10,28.21,0.72,8.73,1.66
192609,-5.23,-4.09,25.32,0.72,8.73,1.64
192644,-6.28,-3.91,23.06,0.69,8.73,1.60
192679,-7.42,-2.60,20.78,0.69,8.73,1.54
192714,-6.13,0.17,17.34,0.76,8.73,1.49
192749,-4.09,-0.40,14.62,0.82,8.73,1.45
192783,-3.54,0.79,13.43,0.86,8.73,1.39
192817,0.18,0.77,12.81,0.93,8.73,1.37
192852,4.27,0.29,12.90,0.98,8.73,1.37
192887,6.71,0.43,12.90,1.06,8.73,1.37
192922,7.92,-0.48,13.42,1.11,8.73,1.46
192957,9.38,-2.58,16.09,1.12,8.73,1.53
192992,10.80,-3.60,18.91,1.06,8.73,1.60
193032,13.07,-4.80,21.58,0.97,8.73,1.64
193067,12.41,-6.28,24.70,0.90,8.72,1.62
193102,10.77,-6.03,26.97,0.83,8.69,1.55
193136,7.07,-5.55,28.68,0.84,8.64,1.52
193171,3.64,-4.37,30.04,0.85,8.63,1.54
193206,1.16,-4.50,30.06,0.82,8.66,1.60
193241,-1.37,-4.36,30.13,0.81,8.73,1.65
193276,-4.16,-4.42,28.41,0.76,8.73,1.66
193311,-6.17,-4.69,26.52,0.73,8.73,1.66
193346,-7.00,-3.51,23.68,0.73,8.73,1.64
193381,-7.02,-2.77,20.78,0.78,8.73,1.62
193416,-6.44,-2.08,17.87,0.80,8.73,1.61
193451,-4.66,-2.10,15.17,0.82,8.73,1.62
193486,-4.13,-0.49,13.32,0.83,8.73,1.55
193520,-0.32,0.01,12.61,0.88,8.73,1.50
193555,3.78,0.07,12.70,0.94,8.73,1.43
193590,6.00,0.06,12.78,1.06,8.73,1.35
193625,7.86,-0.81,13.96,1.16,8.73,1.39
193659,10.15,-2.18,16.05,1.22,8.73,1.50
193694,11.62,-4.00,18.56,1.22,8.73,1.59
193729,12.24,-5.34,21.21,1.13,8.71,1.64
193764,11.78,-6.39,24.17,1.06,8.69,1.69
193798,10.33,-7.03,26.42,0.97,8.69,1.67
193832,9.30,-7.13,28.29,0.93,8.68,1.64
193867,6.60,-6.79,29.76,0.90,8.65,1.70
193902,3.69,-7.33,30.44,0.84,8.72,1.75
193937,0.33,-6.88,30.16,0.79,8.73,1.78
193972,-2.43,-6.17,28.06,0.70,8.73,1.77
194007,-5.40,-4.87,27.28,0.61,8.73,1.72
194042,-7.61,-4.25,25.41,0.60,8.73,1.64
194077,-7.08,-2.90,21.92,0.59,8.73,1.58
194111,-6.12,-1.83,18.90,0.59,8.73,1.50
194146,-6.72,-0.38,16.05,0.65,8.73,1.44
194181,-4.56,-0.79,13.23,0.74,8.73,1.38
194216,-1.72,-0.33,12.18,0.82,8.73,1.31
194251,1.30,-1.22,11.20,0.91,8.73,1.28
194286,4.79,-1.83,10.98,0.99,8.73,1.33
194322,8.18,-2.93,12.44,1.02,8.70,1.44
194356,9.64,-3.33,14.63,1.06,8.68,1.52
194391,10.78,-3.77,18.21,1.08,8.67,1.59
194426,11.22,-5.46,21.22,1.09,8.63,1.64
194461,10.92,-5.53,23.44,1.11,8.63,1.74
194496,9.35,-5.98,26.17,1.07,8.67,1.85
194530,7.40,-6.24,28.24,1.01,8.67,1.93
194564,6.13,-7.50,29.53,0.90,8.64,2.03
194599,3.39,-7.52,30.72,0.79,8.68,2.02
194634,-0.05,-6.86,30.37,0.76,8.67,1.92
194669,-2.54,-5.14,29.61,0.73,8.70,1.78
194704,-4.76,-5.59,27.74,0.74,8.72,1.69
194739,-6.47,-4.52,25.64,0.74,8.73,1.65
194774,-6.43,-3.84,22.72,0.77,8.73,1.62
194809,-5.81,-3.78,18.98,0.75,8.71,1.53
194844,-6.01,-2.58,15.83,0.72,8.67,1.42
194879,-3.21,-1.43,13.12,0.76,8.63,1.34
194914,0.12,-1.19,11.00,0.81,8.60,1.19
194949,1.91,-1.08,9.91,0.94,8.55,1.14
194984,5.13,-1.50,10.43,1.06,8.55,1.22
195018,6.41,-1.48,11.66,1.19,8.58,1.30
195057,10.13,-1.16,13.48,1.33,8.57,1.38
195091,10.80,-3.84,16.17,1.41,8.52,1.53
195126,10.86,-4.88,18.66,1.43,8.45,1.71
195161,10.81,-6.13,21.32,1.38,8.37,1.87
195196,10.21,-7.63,23.56,1.29,8.30,2.01
195230,9.72,-7.23,25.38,1.18,8.28,2.14
195264,7.52,-8.77,27.33,1.03,8.29,2.31
195298,4.32,-8.65,28.91,0.79,8.48,2.41
195333,1.18,-8.50,30.89,0.54,8.63,2.36
195368,-1.94,-6.16,30.31,0.39,8.68,2.24
195403,-4.18,-5.60,27.95,0.18,8.67,2.05
195438,-6.34,-5.31,25.66,-0.02,8.64,1.85
195473,-7.58,-4.15,23.33,-0.26,8.71,1.61
195508,-6.47,0.05,20.70,-0.35,8.73,1.24
195543,-7.61,2.15,18.51,-0.20,8.73,0.93
195578,-7.34,4.42,16.53,0.06,8.73,0.72
195612,-2.81,3.33,14.09,0.41,8.73,0.63
195647,0.01,0.79,12.04,0.73,8.73,0.71
195682,3.24,0.43,12.48,0.98,8.73,0.80
195717,7.48,1.61,14.05,1.23,8.73,0.86
195752,9.68,1.21,15.45,1.55,8.73,0.98
195787,11.09,-1.54,18.08,1.74,8.73,1.22
195823,11.87,-5.13,21.07,1.78,8.73,1.51
195857,12.50,-7.20,24.72,1.67,8.73,1.72
195892,11.22,-8.80,28.12,1.58,8.73,1.87
195927,8.34,-9.95,29.39,1.39,8.73,1.93
195962,5.64,-8.44,30.04,1.19,8.73,1.92
195997,2.54,-9.51,30.16,1.00,8.69,2.01
196032,-0.45,-9.28,29.76,0.91,8.56,2.15
196066,-2.81,-9.25,28.59,0.62,8.53,2.26
196100,-5.23,-7.31,27.12,0.30,8.60,2.23
196134,-7.99,-6.34,25.54,0.13,8.67,2.07
196169,-7.42,-4.24,22.07,-0.02,8.73,1.90
196205,-5.47,-3.08,17.29,-0.05,8.71,1.65
196239,-4.54,-1.53,13.70,0.01,8.61,1.48
196274,-1.43,-2.28,11.48,0.14,8.44,1.41
196309,0.54,-2.02,9.30,0.23,8.26,1.43
196344,0.43,-3.66,8.09,0.24,8.19,1.56
196379,5.17,-3.61,9.55,0.18,8.16,1.61
196414,7.92,-3.45,10.42,0.17,8.09,1.53
196449,10.90,-2.90,11.05,0.18,8.02,1.38
196484,11.66,-3.00,12.92,0.36,8.04,1.19
196518,10.67,-0.50,15.38,0.59,8.00,1.10
196552,12.37,-4.05,16.88,0.63,7.98,1.03
196587,11.03,-4.92,19.42,0.55,7.97,0.93
196622,9.89,-4.12,22.45,0.47,7.96,0.67
196657,8.83,-3.08,23.98,0.50,7.92,0.36
196692,6.33,-1.16,25.32,0.70,7.88,0.22
196727,3.69,-3.02,26.22,0.98,7.88,0.49
196762,0.84,-4.27,27.83,1.13,7.96,0.92
196797,-1.17,-4.26,28.16,1.12,8.02,1.17
196832,-3.83,-3.40,25.81,1.10,8.02,1.27
196867,-6.16,-0.79,23.66,1.37,7.93,1.25
196902,-5.83,-2.47,19.77,1.69,7.80,1.35
196937,-6.46,-5.40,16.24,1.92,7.65,1.59
196972,-8.27,-5.05,14.30,1.79,7.64,1.78
197007,-9.79,-4.72,13.36,1.58,7.75,1.96
197042,-8.38,-4.66,11.27,1.40,7.92,2.03
197082,-2.74,-3.02,9.90,1.18,8.06,1.91
197117,1.26,-2.62,8.74,1.08,8.08,1.94
197152,4.38,-3.57,8.71,1.04,8.08,1.96
197187,6.68,-4.72,9.54,0.97,8.04,1.93
197222,7.99,-2.85,10.43,0.96,8.05,1.90
197257,10.09,-1.87,11.83,1.08,8.10,1.88
197292,11.60,-1.26,16.86,1.15,8.08,1.92
197328,12.17,-4.42,19.17,1.30,7.93,2.05
197362,11.94,-4.97,21.07,1.32,7.81,2.27
197398,9.68,-6.46,22.95,1.25,7.77,2.51
197432,8.83,-6.69,24.32,1.09,7.74,2.73
197467,7.08,-8.53,26.10,0.75,7.74,2.97
197501,2.25,-8.71,27.24,0.39,7.82,3.05
197536,-0.40,-9.76,28.62,-0.10,7.90,3.08
197571,-2.78,-7.69,29.04,-0.55,8.06,2.89
197606,-5.11,-4.67,27.90,-0.79,8.26,2.50
197640,-6.44,-2.06,26.41,-0.72,8.43,2.06
197675,-7.07,-0.42,23.62,-0.59,8.59,1.70
197710,-7.68,1.25,21.00,-0.24,8.71,1.46
197744,-7.40,0.25,17.85,0.13,8.73,1.42
197779,-5.30,0.33,15.66,0.36,8.73,1.42
197813,-5.35,0.73,13.27,0.48,8.73,1.48
197848,0.72,-0.77,12.35,0.56,8.73,1.51
197883,4.83,0.03,12.00,0.61,8.73,1.42
197918,7.32,0.79,11.87,0.75,8.73,1.27
197953,10.52,1.50,13.29,1.03,8.71,1.17
197988,12.36,-0.64,16.07,1.33,8.61,1.17
198024,12.32,-3.26,17.35,1.43,8.53,1.30
198057,12.71,-5.35,19.84,1.35,8.52,1.39
198092,10.01,-6.47,23.40,1.24,8.49,1.45
198126,8.25,-6.41,25.44,1.12,8.41,1.40
198160,9.59,-6.98,26.73,1.07,8.30,1.34
198195,6.47,-6.18,27.37,1.08,8.18,1.32
198230,1.50,-5.48,26.71,1.11,8.12,1.34
198265,-1.32,-5.03,27.54,1.18,8.04,1.41
198300,-2.23,-6.30,26.36,1.21,8.09,1.49
198334,-4.81,-5.53,25.04,1.21,8.08,1.57
198369,-7.07,-4.49,22.77,1.23,8.08,1.66
198404,-7.93,-4.67,20.13,1.23,8.05,1.74
198439,-8.66,-6.37,17.64,1.18,8.03,1.85
198474,-7.82,-5.02,14.95,1.07,8.06,1.91
198509,-5.74,-4.06,12.54,0.88,8.12,1.88
198544,-4.60,-2.83,10.73,0.70,8.23,1.73
198579,-1.08,-1.91,10.03,0.65,8.32,1.60
198614,1.92,-2.66,10.24,0.66,8.37,1.54
198649,5.53,-2.87,9.16,0.65,8.36,1.55
198684,9.19,-4.56,10.37,0.46,8.27,1.64
198719,11.08,-4.90,12.74,0.21,8.13,1.60
198754,11.91,-6.23,13.92,-0.01,8.01,1.45
198789,11.94,-4.47,16.40,-0.11,8.02,1.27
198824,11.51,-0.86,19.07,0.03,8.08,1.13
198859,11.42,-1.76,21.78,0.37,8.16,1.19
198893,9.14,-2.40,25.18,0.62,8.28,1.32
198927,6.92,-4.37,26.71,0.74,8.24,1.47
198962,5.64,-3.25,28.29,0.72,8.18,1.51
198997,2.79,-3.72,27.93,0.72,8.19,1.41
199031,-1.26,-3.64,27.10,0.82,8.18,1.27
199066,-3.96,-2.30,27.30,0.99,8.22,1.18
199105,-5.60,-3.11,25.12,1.11,8.32,1.21
199139,-6.53,-3.73,22.28,1.07,8.33,1.30
199174,-6.88,-1.85,19.49,0.99,8.32,1.36
199209,-6.97,-2.64,16.35,0.94,8.30,1.37
199243,-6.53,-1.87,13.82,0.92,8.28,1.36
199277,-4.53,-0.53,11.71,0.91,8.22,1.40
199312,-1.70,0.17,9.70,0.95,8.16,1.43
199347,0.85,-1.17,9.02,0.97,8.14,1.51
199382,3.78,-1.48,9.39,1.00,8.17,1.53
199417,6.41,-1.54,9.41,1.09,8.18,1.47
199451,8.69,0.06,10.85,1.24,8.23,1.43
199486,10.93,-0.40,13.62,1.41,8.24,1.50
199521,11.34,-2.15,15.80,1.38,8.23,1.63
199556,11.20,-5.83,18.46,1.30,8.26,1.75
199590,11.36,-6.72,20.94,1.12,8.28,1.80
199625,10.57,-6.42,24.25,0.92,8.33,1.73
199659,7.74,-5.41,26.67,0.81,8.37,1.58
199694,5.49,-5.89,27.86,0.77,8.38,1.52
199728,4.02,-6.65,28.71,0.79,8.40,1.58
199763,0.83,-7.30,29.86,0.74,8.40,1.70
199798,-2.24,-6.73,28.94,0.59,8.47,1.83
199833,-5.00,-4.95,27.60,0.46,8.53,1.82
199868,-6.50,-3.79,24.81,0.45,8.57,1.73
199903,-6.87,-1.86,21.68,0.46,8.55,1.64
199938,-6.81,-1.64,17.65,0.53,8.48,1.54
199973,-6.28,-1.70,14.74,0.62,8.42,1.50
200008,-3.55,-1.41,12.23,0.69,8.36,1.46
200043,-1.18,-0.87,10.31,0.69,8.35,1.30
200078,1.41,1.57,9.94,0.76,8.37,1.10
200113,3.21,3.37,10.75,0.93,8.40,0.95
200148,5.13,2.17,10.87,1.13,8.43,0.86
200183,7.84,-0.83,11.46,1.21,8.44,0.99
200218,9.67,-2.78,13.11,1.13,8.40,1.17
200253,11.87,-5.23,15.20,0.92,8.36,1.26
200288,12.77,-6.24,18.18,0.69,8.33,1.22
200323,11.09,-5.08,20.97,0.54,8.31,1.09
200358,9.45,-3.39,24.00,0.58,8.34,0.94
200393,8.79,-2.48,26.61,0.71,8.31,0.87
200428,6.59,-4.11,27.34,0.85,8.27,0.99
200463,3.75,-4.65,28.58,0.97,8.30,1.19
200498,0.78,-4.80,28.63,0.98,8.26,1.39
200533,-2.09,-4.18,29.14,0.88,8.27,1.53
200568,-4.13,-2.76,26.73,0.97,8.27,1.53
200603,-5.69,-4.00,23.74,1.17,8.23,1.54
200638,-6.82,-3.34,20.99,1.34,8.19,1.65
200673,-7.00,-5.44,17.42,1.44,8.14,1.82
200708,-6.17,-5.06,13.86,1.42,8.05,2.02
200743,-5.80,-5.81,11.10,1.34,7.98,2.21
200778,-4.83,-7.03,9.57,1.17,7.97,2.35
200813,-2.16,-5.97,8.35,0.96,8.02,2.34
200848,0.82,-4.32,8.37,0.75,8.06,2.29
200883,4.33,-2.39,8.47,0.66,8.10,2.13
200918,6.28,-2.62,9.87,0.67,8.15,1.92
200953,9.43,-2.14,11.48,0.74,8.17,1.80
200988,11.06,-3.20,14.51,0.80,8.19,1.77
201023,12.35,-3.31,16.96,0.78,8.21,1.74
201058,12.43,-4.80,19.95,0.71,8.25,1.71
201093,10.53,-6.12,22.81,0.64,8.28,1.64
201133,9.61,-4.71,25.40,0.56,8.28,1.51
201168,6.39,-4.90,27.37,0.58,8.23,1.45
201203,4.02,-5.36,28.21,0.61,8.18,1.38
201238,1.79,-4.08,28.02,0.63,8.16,1.37
201273,-0.60,-3.45,27.18,0.61,8.13,1.32
201308,-3.93,-3.64,25.35,0.67,8.12,1.25
201343,-5.15,-1.97,23.54,0.68,8.09,1.21
201378,-6.19,-1.75,21.12,0.69,8.07,1.18
201412,-6.39,-1.48,17.71,0.63,8.04,1.11
201446,-6.89,-0.70,14.76,0.50,8.00,0.96
201481,-7.56,1.54,13.11,0.33,8.01,0.61
201516,-5.54,5.55,11.50,0.40,8.06,0.27
201551,-3.52,5.20,9.86,0.63,8.14,0.07
201586,-1.12,6.08,9.61,0.99,8.16,0.12
201621,1.13,3.49,8.35,1.29,8.23,0.34
201655,3.11,0.11,8.49,1.44,8.27,0.66
201689,5.70,0.38,9.56,1.47,8.32,0.97
201723,8.21,-2.13,13.38,1.51,8.37,1.22
201757,9.62,-4.77,15.71,1.39,8.45,1.47
201791,11.39,-4.57,19.82,1.26,8.52,1.61
201825,12.05,-5.51,22.56,1.24,8.54,1.78
201859,11.92,-7.19,25.02,1.15,8.51,1.91
201893,10.18,-6.97,27.18,1.06,8.43,2.04
201928,7.06,-8.27,28.31,0.95,8.32,2.32
201963,2.89,-9.22,28.48,0.71,8.27,2.49
201998,-0.19,-9.34,28.89,0.34,8.24,2.50
202033,-2.55,-7.78,28.80,0.12,8.33,2.32
202067,-5.14,-4.61,28.30,0.08,8.45,2.03
202101,-7.53,-4.26,27.29,0.22,8.62,1.75
202136,-5.56,-3.15,22.31,0.29,8.73,1.60
202171,-4.44,-1.34,18.45,0.34,8.73,1.38
202206,-4.48,-0.97,14.99,0.28,8.68,1.11
202241,-3.52,3.55,13.17,0.22,8.72,0.64
202275,-3.18,7.24,14.04,0.43,8.73,0.18
202309,-0.49,3.94,12.40,0.79,8.73,0.25
202344,1.29,0.75,11.79,1.10,8.73,0.53
202379,5.08,-0.69,13.21,1.23,8.73,0.89
202414,9.27,-1.87,16.16,1.33,8.73,1.17
202449,11.89,-3.84,19.37,1.34,8.73,1.37
202484,12.69,-4.46,22.09,1.44,8.73,1.56
202519,12.34,-5.84,24.42,1.47,8.73,1.79
202554,11.32,-7.28,26.84,1.46,8.73,2.08
202589,8.90,-7.92,28.97,1.34,8.73,2.32
202624,6.47,-10.38,30.12,1.13,8.73,2.58
202659,3.24,-10.69,32.53,0.74,8.73,2.75
202694,-1.02,-10.69,32.36,0.49,8.73,2.76
202729,-3.02,-7.94,29.75,0.08,8.73,2.65
202764,-5.31,-5.37,29.03,-0.17,8.73,2.35
202799,-7.41,-4.99,26.53,-0.32,8.73,2.03
202834,-6.87,-2.53,22.93,-0.28,8.73,1.69
202870,-7.71,-1.92,19.70,-0.09,8.73,1.44
202904,-5.05,-0.81,16.80,0.07,8.73,1.30
202939,-1.96,1.36,14.26,0.27,8.73,1.15
202974,2.96,-2.12,12.52,0.47,8.73,1.25
203009,5.60,-4.22,12.99,0.53,8.73,1.38
203044,7.93,-4.28,13.53,0.54,8.73,1.44
203079,10.93,-4.56,15.34,0.63,8.73,1.37
203114,11.65,-2.83,17.73,0.84,8.73,1.31
203154,12.89,-2.04,19.91,1.22,8.64,1.35
203189,12.28,-3.70,21.89,1.46,8.55,1.57
203225,11.34,-5.98,24.78,1.51,8.50,1.83
203259,9.22,-7.30,26.94,1.37,8.47,1.96
203293,6.23,-8.72,28.67,1.19,8.41,1.93
203327,3.06,-7.26,28.78,1.07,8.38,1.80
203362,1.24,-6.79,27.34,1.04,8.33,1.61
203397,-0.92,-6.24,26.33,1.08,8.22,1.51
203431,-4.36,-6.82,24.35,1.07,8.14,1.55
203465,-6.81,-6.86,22.64,0.93,8.09,1.64
203499,-7.22,-6.79,21.43,0.67,8.11,1.69
203533,-7.78,-4.26,19.21,0.38,8.20,1.58
203567,-8.60,-1.80,17.57,0.19,8.32,1.39
203601,-7.95,-0.74,15.60,0.26,8.44,1.27
203635,-5.35,0.30,13.52,0.40,8.52,1.28
203669,-2.55,-1.32,10.89,0.56,8.56,1.34
203704,1.78,-2.58,9.61,0.63,8.52,1.51
203739,5.87,-4.06,10.31,0.60,8.44,1.61
203774,8.79,-4.43,11.82,0.56,8.32,1.63
203809,9.84,-1.83,13.35,0.58,8.29,1.57
203843,11.34,-1.97,14.11,0.76,8.29,1.50
203878,12.88,-1.57,16.66,1.02,8.26,1.50
203913,12.31,-1.70,19.73,1.31,8.19,1.68
203948,10.22,-4.39,22.59,1.50,8.14,1.97
203982,9.20,-7.20,24.27,1.52,8.10,2.27
204017,8.34,-8.63,26.12,1.35,8.10,2.48
204052,6.42,-8.09,27.70,1.10,8.13,2.49
204086,2.77,-8.18,28.98,0.88,8.27,2.30
204120,-0.71,-6.31,29.23,0.84,8.35,2.10
204155,-3.87,-5.82,27.81,0.92,8.40,1.87
204189,-5.71,-3.72,25.91,0.99,8.41,1.79
204223,-5.58,-7.05,22.66,1.02,8.43,1.80
204257,-6.42,-5.74,21.14,0.81,8.42,1.81
204291,-7.31,-4.99,17.16,0.54,8.40,1.70
204325,-6.96,-1.30,15.25,0.35,8.43,1.48
204360,-4.88,-0.24,12.74,0.41,8.43,1.42
204395,-1.72,-1.37,10.57,0.49,8.41,1.45
204430,1.05,-3.70,8.74,0.53,8.34,1.68
204464,3.69,-6.28,9.05,0.35,8.27,1.97
204498,5.03,-5.99,10.02,0.13,8.24,2.03
204533,7.02,-3.88,10.75,0.02,8.31,1.86
204568,9.85,-2.33,12.99,0.14,8.38,1.60
204603,11.63,-1.99,16.04,0.34,8.38,1.46
204638,11.96,-2.62,18.86,0.57,8.34,1.39
204673,11.81,-2.91,21.58,0.72,8.35,1.39
204707,10.39,-3.99,24.16,0.80,8.39,1.40
204742,8.43,-5.20,26.48,0.78,8.45,1.27
204776,6.71,-3.98,28.19,0.79,8.48,1.07
204810,3.92,-3.73,29.33,0.92,8.53,0.96
204845,0.71,-3.43,30.01,1.11,8.53,1.04
204880,-2.21,-4.48,29.59,1.18,8.54,1.22
204915,-4.45,-4.97,28.06,1.11,8.56,1.42
204950,-6.48,-3.41,26.05,1.08,8.56,1.51
204984,-7.13,-2.56,22.63,1.17,8.55,1.55
205018,-7.63,-3.83,19.01,1.24,8.52,1.62
205052,-5.75,-4.21,15.89,1.21,8.48,1.75
205086,-4.04,-2.14,13.61,1.11,8.48,1.74
205121,-3.56,0.51,11.97,0.97,8.55,1.55
205161,0.88,0.82,11.37,0.99,8.62,1.22
205196,4.92,3.60,12.44,1.19,8.62,0.93
205231,6.77,3.89,11.90,1.39,8.54,0.91
205266,8.72,0.25,12.23,1.41,8.51,1.14
205301,10.83,-4.19,13.75,1.22,8.47,1.37
205336,11.49,-7.46,16.09,0.78,8.47,1.47
205371,11.12,-6.89,18.58,0.41,8.49,1.33
205405,11.58,-3.74,21.88,0.38,8.57,1.20
205440,11.04,-2.68,26.38,0.60,8.67,1.23
205475,8.61,-3.59,28.28,0.73,8.69,1.31
205510,6.08,-4.05,29.50,0.79,8.64,1.53
205545,3.30,-5.00,31.12,0.76,8.70,1.70
205580,0.30,-5.06,31.12,0.63,8.73,1.75
205615,-2.59,-5.12,30.23,0.49,8.73,1.79
205650,-5.00,-3.28,29.02,0.39,8.73,1.76
205684,-5.61,-2.58,24.69,0.43,8.73,1.64
205719,-6.00,-2.32,21.20,0.45,8.73,1.55
205754,-6.46,-1.18,18.30,0.49,8.71,1.50
205788,-6.64,-2.61,15.54,0.67,8.68,1.57
205823,-5.31,-4.53,12.59,0.77,8.62,1.74
205858,-2.19,-6.49,10.65,0.77,8.57,1.97
205893,1.59,-8.27,9.59,0.62,8.50,2.24
205928,5.19,-8.68,9.70,0.40,8.45,2.31
205963,6.72,-6.75,11.01,0.27,8.45,2.14
205998,8.73,-4.38,12.29,0.36,8.57,1.85
206033,10.56,-2.82,16.37,0.51,8.70,1.73
206068,11.40,-3.10,19.94,0.66,8.73,1.67
206103,11.86,-3.97,23.06,0.81,8.73,1.69
206138,11.10,-4.87,25.93,0.82,8.73,1.71
206173,9.28,-3.63,28.06,0.80,8.73,1.65
206207,7.57,-4.05,29.96,0.81,8.73,1.62
206242,4.52,-4.52,31.76,0.84,8.73,1.51
206276,1.22,-2.84,31.65,0.92,8.73,1.38
206311,-1.61,-4.10,29.58,1.03,8.70,1.37
206347,-4.35,-3.15,28.59,1.09,8.64,1.41
206381,-6.21,-3.95,26.12,1.11,8.64,1.47
206415,-6.80,-3.84,22.94,1.03,8.66,1.53
206450,-7.69,-3.85,19.67,1.00,8.67,1.56
206485,-6.91,-3.77,16.64,1.02,8.67,1.61
206520,-4.67,-3.58,14.40,1.02,8.69,1.66
206555,-2.51,-3.05,12.67,0.99,8.73,1.60
206590,1.52,-2.05,12.35,0.99,8.73,1.52
206624,4.15,-0.25,12.45,1.06,8.73,1.44
206659,6.88,-0.69,12.35,1.20,8.72,1.38
206694,9.44,-1.57,12.74,1.30,8.70,1.45
206729,9.83,-2.36,15.06,1.37,8.73,1.58
206764,10.72,-2.61,18.77,1.43,8.73,1.72
206799,12.24,-4.54,22.02,1.30,8.73,1.85
206834,11.90,-5.95,25.17,1.19,8.73,1.93
206868,10.32,-5.94,27.33,1.06,8.73,1.93
206903,7.82,-5.88,29.43,0.96,8.73,1.85
206938,4.38,-5.25,30.71,0.91,8.73,1.74
206973,1.79,-4.31,30.58,0.90,8.73,1.63
207008,-1.08,-3.59,30.58,0.99,8.73,1.53
207043,-3.96,-4.74,28.22,1.01,8.73,1.54
207078,-5.64,-4.07,25.78,1.01,8.73,1.58
207113,-6.40,-4.26,22.69,1.01,8.73,1.62
207147,-7.41,-4.47,20.00,0.96,8.70,1.64
207186,-6.68,-1.27,17.36,0.90,8.71,1.62
207220,-5.20,-0.14,15.40,0.86,8.73,1.62
207255,-4.59,0.38,14.28,0.86,8.73,1.61
207290,-1.04,0.34,13.27,0.88,8.73,1.61
207325,2.94,0.54,13.26,0.92,8.73,1.58
207360,5.99,-0.90,13.78,0.96,8.73,1.54
207394,8.99,-2.18,14.12,1.01,8.73,1.53
207429,10.88,-2.96,16.13,1.03,8.73,1.56
207464,11.71,-4.13,18.95,1.05,8.73,1.58
207499,12.45,-5.65,21.86,0.95,8.73,1.59
207534,11.33,-6.25,24.62,0.84,8.73,1.54
207569,10.51,-5.57,27.22,0.73,8.73,1.39
207604,7.93,-3.79,29.81,0.76,8.73,1.20
207639,4.90,-3.86,30.89,0.86,8.73,1.17
207674,1.95,-3.85,31.15,0.96,8.73,1.30
207709,-1.09,-4.79,30.66,0.91,8.73,1.52
207744,-3.37,-4.65,28.05,0.75,8.73,1.63
207779,-5.13,-5.07,24.98,0.55,8.73,1.65
207815,-6.06,-3.13,22.62,0.46,8.73,1.57
207849,-6.77,-0.39,20.60,0.49,8.73,1.47
207884,-6.42,1.25,18.67,0.59,8.73,1.43
207919,-7.05,1.93,17.12,0.77,8.73,1.48
207954,-4.68,0.88,15.03,0.89,8.73,1.53
207989,-0.25,1.15,13.71,0.94,8.73,1.55
208024,4.43,1.59,13.71,1.04,8.73,1.44
208059,7.63,0.22,13.33,1.19,8.73,1.36
208094,10.30,-0.24,13.83,1.32,8.73,1.39
208129,10.94,-2.53,16.17,1.43,8.73,1.46
208164,11.78,-3.84,18.65,1.36,8.73,1.60
208199,12.13,-6.05,21.62,1.18,8.73,1.68
208234,12.02,-6.46,25.06,1.01,8.73,1.67
208269,10.90,-5.77,27.71,0.91,8.73,1.56
208304,8.41,-5.37,30.08,0.92,8.73,1.47
208339,5.37,-4.93,30.55,0.94,8.73,1.42
208374,1.86,-5.55,30.70,1.01,8.73,1.43
208409,-1.29,-5.28,30.61,1.05,8.73,1.51
208444,-4.10,-4.72,28.74,1.09,8.73,1.53
208479,-5.63,-5.22,25.80,1.13,8.73,1.60
208514,-7.08,-4.19,23.47,1.09,8.73,1.67
208549,-7.60,-4.09,20.65,1.08,8.73,1.69
208584,-6.56,-3.79,18.16,0.99,8.73,1.70
208619,-4.53,-1.09,15.97,0.89,8.73,1.62
208654,-2.64,-0.28,13.69,0.88,8.73,1.47
208689,1.22,-1.11,12.76,0.94,8.73,1.41
208724,4.62,-1.55,12.45,1.03,8.73,1.35
208759,6.89,-2.11,12.49,1.14,8.73,1.36
208794,9.21,-4.24,13.66,1.16,8.73,1.45
208829,10.95,-3.42,15.79,1.14,8.73,1.52
208865,12.07,-3.35,19.03,1.14,8.73,1.58
208899,12.97,-4.28,22.56,1.18,8.73,1.62
208934,11.85,-5.89,24.66,1.24,8.68,1.76
208969,10.58,-5.65,27.30,1.18,8.72,1.84
209004,7.62,-7.18,29.00,1.11,8.71,1.84
209039,5.21,-5.48,30.50,1.05,8.71,1.68
209074,1.97,-4.60,31.21,1.10,8.73,1.40
209109,-1.22,-4.65,30.59,1.29,8.73,1.29
209144,-3.90,-6.15,28.62,1.43,8.73,1.38
209179,-5.99,-6.39,26.53,1.37,8.73,1.56
209219,-7.08,-5.98,23.53,1.07,8.73,1.67
209254,-7.12,-4.19,20.18,0.87,8.73,1.63
209289,-5.98,-3.47,16.81,0.74,8.73,1.54
209324,-4.19,-2.40,14.12,0.77,8.73,1.50
209359,-2.62,-4.07,12.23,0.84,8.73,1.58
209394,-0.47,-6.09,11.05,0.85,8.72,1.84
209429,3.40,-7.41,11.14,0.69,8.73,2.05
209464,6.77,-5.18,11.86,0.61,8.73,1.96
209499,10.24,-2.60,14.10,0.60,8.73,1.82
209534,11.83,-3.33,16.80,0.68,8.73,1.73
209569,11.91,-3.34,19.65,0.70,8.73,1.64
209604,11.80,-3.73,21.96,0.77,8.73,1.63
209639,10.73,-4.90,24.66,0.79,8.73,1.66
209674,9.50,-6.22,27.28,0.76,8.73,1.59
209709,6.99,-6.11,30.18,0.78,8.73,1.53
209744,4.24,-7.12,31.80,0.80,8.73,1.47
209779,0.96,-6.21,32.42,0.89,8.73,1.43
209815,-1.62,-5.01,31.00,0.97,8.73,1.43
209849,-3.92,-4.27,29.23,0.96,8.73,1.49
209884,-6.28,-3.23,26.90,0.96,8.73,1.52
209919,-6.60,-3.01,23.06,0.91,8.73,1.50
209954,-6.25,-2.61,19.66,0.80,8.73,1.41
209989,-7.22,-0.07,17.92,0.74,8.73,1.29
210024,-5.12,1.49,15.83,0.77,8.73,1.17
210059,-1.01,3.02,14.47,0.87,8.73,1.00
210094,2.13,3.70,13.53,1.05,8.73,0.90
210129,4.58,2.64,13.14,1.22,8.73,1.00
210164,7.28,1.06,13.80,1.32,8.73,1.17
210199,10.18,-2.82,14.34,1.38,8.73,1.37
210234,11.54,-5.08,17.08,1.26,8.73,1.55
210269,12.68,-5.32,20.44,1.14,8.73,1.63
210304,12.66,-5.30,23.51,1.07,8.73,1.67
210339,11.86,-6.07,25.99,1.03,8.73,1.70
210374,9.66,-5.33,28.49,0.98,8.73,1.77
210409,7.85,-6.66,30.72,0.97,8.73,1.95
210444,4.01,-8.27,32.10,0.87,8.73,2.14
210479,-0.36,-7.86,32.41,0.65,8.73,2.17
210514,-3.10,-5.88,30.95,0.50,8.73,2.11
210549,-5.27,-3.86,28.88,0.49,8.73,2.00
210584,-7.22,-4.62,26.17,0.57,8.73,1.92
210619,-6.84,-2.97,22.26,0.64,8.73,1.86
210654,-5.63,-3.08,18.87,0.71,8.73,1.84
210689,-5.54,-2.42,16.27,0.73,8.73,1.88
210724,-4.04,-2.60,13.92,0.74,8.73,1.96
210759,-2.18,-3.51,12.44,0.70,8.73,2.11
210794,1.35,-5.06,12.41,0.54,8.73,2.23
210829,4.87,-4.57,12.64,0.40,8.73,2.13
210864,7.17,-5.29,12.72,0.32,8.73,1.95
210899,9.88,-4.96,15.40,0.35,8.73,1.78
210934,11.41,-6.20,18.82,0.31,8.73,1.64
210969,12.89,-5.07,21.86,0.37,8.73,1.50
211004,12.17,-4.21,24.73,0.50,8.73,1.45
211039,10.64,-2.78,27.92,0.66,8.73,1.49
211074,8.75,-4.47,29.80,0.82,8.73,1.63
211109,5.77,-5.71,30.30,0.82,8.73,1.78
211144,2.71,-6.85,30.51,0.77,8.73,1.88
211179,-0.75,-6.72,30.96,0.66,8.73,1.94
211214,-3.51,-4.63,29.98,0.57,8.73,1.88
211254,-4.83,-1.42,27.36,0.68,8.73,1.73
211289,-6.34,-2.29,24.33,0.92,8.73,1.69
211324,-6.57,-3.62,20.65,1.10,8.71,1.77
211359,-6.24,-5.83,17.03,1.17,8.61,1.91
211394,-6.01,-6.89,14.58,1.09,8.64,2.02
211429,-5.09,-6.84,12.28,0.95,8.69,2.00
211464,-2.21,-4.67,11.34,0.84,8.73,1.87
211499,1.41,-3.18,12.39,0.83,8.73,1.84
211534,4.98,-2.30,12.46,0.82,8.73,1.73
211569,7.00,-0.70,12.79,0.90,8.73,1.70
211604,9.06,-1.71,15.34,0.94,8.73,1.70
211639,10.47,-3.70,19.09,1.01,8.73,1.71
211674,12.02,-3.54,21.39,1.00,8.73,1.72
211709,11.77,-5.43,25.02,1.02,8.73,1.78
211744,9.22,-6.79,27.08,0.95,8.73,1.79
211779,7.45,-6.83,28.64,0.89,8.73,1.76
211815,4.95,-6.01,29.63,0.86,8.69,1.71
211849,2.00,-6.61,30.52,0.87,8.73,1.62
211884,-0.73,-4.76,31.13,0.95,8.73,1.48
211919,-3.55,-3.90,29.37,1.15,8.73,1.38
211954,-5.16,-3.27,26.90,1.35,8.73,1.41
211989,-6.62,-5.25,23.53,1.44,8.69,1.54
212024,-6.84,-5.21,20.85,1.38,8.68,1.68
212059,-7.15,-4.21,18.32,1.18,8.72,1.68
212094,-6.19,-1.02,16.42,1.04,8.73,1.62
212129,-4.00,0.66,14.61,0.98,8.73,1.48
212164,-1.47,2.73,13.60,1.01,8.73,1.31
212199,1.78,2.24,13.25,1.14,8.73,1.26
212234,5.79,0.75,12.32,1.31,8.73,1.21
212269,8.71,-0.96,13.37,1.42,8.73,1.32
212304,10.99,-2.61,15.28,1.48,8.73,1.46
212339,12.09,-4.89,17.57,1.41,8.73,1.60
212374,12.70,-6.02,20.29,1.19,8.73,1.66
212409,11.85,-6.87,23.48,1.03,8.73,1.65
212444,10.70,-6.31,26.67,0.87,8.73,1.52
212479,8.58,-4.12,29.25,0.81,8.73,1.30
212514,5.67,-3.62,30.08,0.85,8.73,1.27
212549,2.79,-5.15,30.87,0.92,8.73,1.38
212584,-0.70,-6.82,30.96,0.91,8.73,1.65
212619,-3.17,-4.46,29.78,0.73,8.73,1.79
212654,-5.03,-4.69,26.29,0.57,8.73,1.76
212689,-8.23,-3.15,25.36,0.56,8.72,1.64
212724,-8.45,-2.60,22.84,0.62,8.73,1.59
212759,-8.65,-0.62,19.93,0.58,8.73,1.52
212794,-7.95,1.01,17.31,0.59,8.73,1.39
212829,-3.27,1.36,15.14,0.61,8.73,1.32
212864,1.81,3.15,13.65,0.68,8.73,1.12
212899,1.69,2.48,12.13,0.82,8.73,1.12
212934,5.43,-1.17,11.88,0.87,8.73,1.26
212969,8.00,-4.13,12.69,0.81,8.73,1.42
213004,10.72,-6.40,14.43,0.60,8.73,1.52
213039,11.94,-6.22,17.97,0.37,8.73,1.47
213074,11.84,-4.02,21.19,0.25,8.73,1.30
213109,11.78,-2.96,24.33,0.41,8.73,1.20
213144,10.73,-3.63,26.88,0.55,8.73,1.13
213179,8.74,-3.06,28.80,0.67,8.73,1.03
213214,6.41,-4.19,30.11,0.80,8.73,1.10
213249,3.63,-3.67,31.35,0.96,8.73,1.21
213289,-0.61,-4.49,30.74,1.11,8.73,1.32
213324,-4.01,-4.23,29.39,1.21,8.73,1.38
213359,-5.79,-4.16,27.10,1.30,8.73,1.47
213394,-6.56,-4.84,23.34,1.35,8.73,1.58
213429,-6.64,-4.46,19.97,1.39,8.72,1.72
213464,-6.71,-4.24,17.67,1.34,8.67,1.84
213499,-6.04,-3.93,15.62,1.16,8.72,1.88
213534,-4.50,-2.29,13.66,1.03,8.73,1.83
213569,-2.04,-2.53,12.33,0.95,8.73,1.81
213604,1.72,-3.99,12.01,0.88,8.73,1.94
213640,5.77,-5.75,11.57,0.74,8.73,2.02
213674,8.79,-6.69,13.05,0.57,8.73,2.04
213709,10.76,-6.27,15.43,0.39,8.67,1.95
213744,11.29,-4.70,17.75,0.33,8.63,1.83
213779,11.99,-3.00,20.32,0.41,8.66,1.72
213815,11.84,-2.49,23.31,0.61,8.68,1.74
213849,10.27,-4.78,25.96,0.74,8.66,1.86
213884,8.63,-4.31,27.91,0.68,8.58,1.86
213919,6.62,-5.37,29.66,0.60,8.51,1.85
213954,3.30,-5.16,30.09,0.55,8.57,1.72
213989,-0.34,-4.21,31.52,0.50,8.59,1.66
214024,-2.74,-4.19,29.86,0.37,8.68,1.63
214059,-4.82,-3.65,27.88,0.24,8.71,1.58
214095,-5.61,-2.69,23.97,0.09,8.72,1.45
214129,-6.37,0.30,20.98,-0.03,8.67,1.24
214164,-8.04,2.42,19.51,-0.09,8.70,0.94
214199,-6.29,2.60,16.83,0.11,8.73,0.78
214234,-4.93,3.52,14.42,0.42,8.73,0.82
214269,-3.67,0.44,11.91,0.73,8.73,1.02
214304,0.98,-3.13,10.90,0.84,8.73,1.34
214338,5.72,-4.07,11.83,0.80,8.73,1.57
214372,8.88,-4.47,12.70,0.77,8.73,1.62
214407,11.16,-4.39,15.00,0.72,8.65,1.62
214442,10.88,-2.83,16.82,0.77,8.57,1.59
214477,10.54,-2.35,18.46,0.88,8.57,1.56
214512,10.69,-3.59,21.30,0.97,8.59,1.64
214547,10.80,-5.63,23.97,1.03,8.60,1.72
214582,10.14,-7.02,26.70,1.03,8.63,1.80
214617,7.31,-7.17,29.05,0.97,8.59,1.86
214652,4.73,-7.93,30.29,0.88,8.59,1.84
214687,1.76,-7.49,30.15,0.85,8.57,1.82
214722,-0.42,-5.74,28.67,0.81,8.53,1.77
214757,-4.03,-6.82,27.77,0.76,8.53,1.76
214792,-5.95,-5.49,25.98,0.67,8.58,1.76
214827,-6.14,-3.91,22.39,0.55,8.60,1.72
214862,-6.70,-2.93,19.07,0.50,8.60,1.64
214897,-5.58,-1.14,16.14,0.50,8.57,1.55
214932,-4.38,-1.45,13.52,0.56,8.52,1.52
214967,-4.23,-2.03,11.12,0.61,8.48,1.55
215002,-1.61,-2.13,9.66,0.64,8.46,1.65
215037,1.37,-4.38,9.68,0.57,8.41,1.76
215072,3.60,-4.54,8.26,0.52,8.40,1.76
215107,6.26,-3.46,10.58,0.48,8.47,1.67
215141,9.86,-2.39,13.69,0.60,8.49,1.57
215176,11.17,-1.66,17.30,0.71,8.52,1.49
215211,13.03,-2.15,20.46,0.82,8.51,1.46
215246,12.03,-5.06,22.66,0.90,8.49,1.48
215281,10.80,-4.65,25.12,0.94,8.54,1.52
215320,7.72,-4.30,27.26,0.86,8.60,1.39
215355,5.42,-5.14,27.91,0.89,8.55,1.32
215390,2.94,-6.16,29.62,0.99,8.56,1.31
215425,-0.18,-6.45,30.55,1.08,8.54,1.37
215460,-3.06,-5.87,28.80,1.10,8.53,1.43
215495,-5.16,-4.58,26.39,1.12,8.49,1.49
215530,-6.13,-3.68,23.63,1.18,8.42,1.54
215565,-7.27,-2.55,21.10,1.29,8.35,1.63
215600,-7.51,-4.44,17.93,1.44,8.31,1.82
215635,-6.68,-5.23,15.11,1.40,8.32,2.03
215670,-4.17,-5.59,12.41,1.27,8.35,2.12
215705,-3.15,-5.90,10.61,1.11,8.40,2.07
215740,-1.47,-4.50,10.35,0.97,8.52,1.98
215775,2.17,-3.77,11.37,0.91,8.61,1.85
215810,5.77,-1.94,12.40,0.96,8.65,1.75
215845,8.96,-2.20,13.25,0.96,8.68,1.74
215880,10.83,-3.28,15.63,0.97,8.68,1.75
215915,11.73,-5.07,18.37,0.95,8.65,1.75
215950,13.23,-4.09,20.97,0.93,8.55,1.74
215985,12.51,-5.49,23.54,0.91,8.48,1.78
216020,10.50,-5.44,25.76,0.84,8.45,1.79
216055,7.65,-5.88,27.56,0.82,8.42,1.79
216090,4.74,-6.07,28.87,0.76,8.45,1.85
216125,2.03,-6.79,29.23,0.69,8.55,1.88
216160,-0.73,-6.23,30.06,0.63,8.63,1.83
216195,-3.56,-4.47,28.19,0.64,8.67,1.75
216230,-5.21,-2.88,25.63,0.69,8.62,1.68
216265,-6.57,-3.40,22.85,0.78,8.54,1.63
216300,-6.83,-2.64,19.64,0.86,8.45,1.63
216335,-7.20,-1.98,16.72,0.92,8.39,1.68
216370,-6.75,-2.32,14.28,0.97,8.41,1.79
216405,-4.94,-2.33,12.45,0.93,8.43,1.81
216440,-1.58,-2.20,11.28,0.85,8.49,1.70
216475,-0.04,-0.62,10.11,0.82,8.52,1.61
216510,4.76,-1.29,11.28,0.93,8.54,1.50
216545,6.85,-1.35,11.83,1.03,8.56,1.43
216580,10.08,-1.57,14.04,1.17,8.59,1.48
216615,12.04,-2.80,16.84,1.20,8.57,1.56
216650,12.60,-4.00,18.91,1.22,8.54,1.62
216685,12.05,-4.74,21.81,1.16,8.56,1.68
216720,10.91,-5.74,24.45,1.02,8.54,1.64
216755,9.56,-5.46,26.93,0.95,8.56,1.55
216790,6.82,-5.12,28.82,0.93,8.54,1.44
216825,4.46,-5.23,30.03,0.97,8.54,1.33
216860,1.55,-4.41,29.81,1.13,8.54,1.20
216896,-1.31,-4.30,29.76,1.40,8.58,1.12
216930,-3.59,-4.27,27.82,1.63,8.59,1.19
216965,-5.66,-5.79,25.68,1.70,8.60,1.40
217000,-7.29,-5.85,23.48,1.62,8.66,1.63
217035,-8.05,-5.37,20.77,1.46,8.72,1.80
217070,-6.84,-4.71,17.97,1.26,8.73,1.87
217105,-3.41,-1.89,15.32,1.10,8.73,1.86
217140,-2.13,-1.50,12.99,1.05,8.73,1.81
217175,0.70,-2.34,12.77,1.00,8.73,1.78
217210,3.14,-3.45,12.61,0.96,8.73,1.78
217245,5.92,-4.48,12.82,0.92,8.73,1.80
217280,9.15,-5.17,14.27,0.81,8.73,1.82
217315,10.47,-6.07,17.37,0.64,8.73,1.82
217355,12.80,-4.08,19.75,0.63,8.73,1.71
217390,13.18,-4.26,22.75,0.59,8.73,1.66
217425,12.12,-4.94,25.67,0.63,8.73,1.65
217460,9.93,-3.70,27.67,0.68,8.73,1.65
217495,7.02,-5.55,29.43,0.71,8.73,1.80
217530,4.02,-6.07,30.48,0.65,8.73,1.86
217565,1.05,-5.99,30.72,0.53,8.73,1.88
217600,-1.83,-5.03,30.83,0.43,8.73,1.81
217635,-4.25,-3.60,29.19,0.32,8.73,1.74
217671,-6.16,-1.95,27.26,0.33,8.73,1.63
217705,-7.32,-1.24,24.53,0.39,8.73,1.51
217739,-7.05,-1.83,21.57,0.50,8.73,1.40
217774,-6.22,-1.55,19.05,0.64,8.73,1.40
217809,-3.51,-2.39,15.55,0.78,8.73,1.40
217844,-1.40,-1.81,13.04,0.81,8.73,1.29
217879,2.42,0.05,12.31,0.88,8.73,1.25
217914,5.69,2.26,13.24,1.03,8.73,1.11
217949,6.28,1.22,12.96,1.21,8.73,1.10
217984,8.96,-1.36,14.74,1.24,8.73,1.27
218019,10.83,-4.30,17.77,1.14,8.73,1.46
218054,11.87,-5.13,20.31,0.91,8.73,1.50
218089,11.32,-5.90,23.76,0.68,8.73,1.40
218124,9.54,-5.37,26.13,0.62,8.73,1.23
218159,8.35,-4.08,28.45,0.69,8.73,1.13
218194,6.52,-3.92,30.14,0.80,8.73,1.18
218229,3.29,-4.65,31.19,0.87,8.73,1.33
218264,0.48,-4.36,31.86,0.95,8.73,1.38
218299,-2.53,-5.07,31.66,1.03,8.73,1.44
218334,-4.89,-3.59,29.96,1.10,8.73,1.50
218369,-6.22,-4.16,26.51,1.20,8.73,1.57
218404,-6.39,-4.27,23.07,1.09,8.73,1.64
218439,-6.06,-3.50,19.42,0.99,8.73,1.67
218474,-5.70,-0.48,17.02,0.93,8.73,1.64
218509,-3.45,1.41,14.45,0.90,8.73,1.57
218544,-1.20,1.47,12.92,0.90,8.73,1.44
218579,0.73,0.67,11.94,0.99,8.73,1.37
218614,4.51,-0.61,12.47,1.07,8.73,1.44
218649,7.59,-1.25,14.11,1.10,8.73,1.51
218684,10.75,-2.29,16.02,1.15,8.73,1.56
218719,12.45,-4.73,17.52,1.11,8.73,1.63
218754,12.75,-4.20,20.04,1.05,8.73,1.69
218789,12.05,-4.70,22.76,1.00,8.73,1.72
218824,11.20,-5.31,25.64,0.98,8.73,1.79
218859,9.35,-4.79,28.26,0.93,8.73,1.82
218894,7.69,-4.31,30.82,0.88,8.73,1.86
218929,4.21,-6.00,31.36,0.80,8.73,1.85
218963,0.65,-4.76,31.49,0.72,8.73,1.80
218998,-2.29,-6.19,31.19,0.65,8.73,1.80
219033,-4.77,-4.59,29.09,0.55,8.73,1.80
219069,-5.62,-4.59,26.30,0.51,8.73,1.72
219103,-5.28,-2.64,22.55,0.42,8.73,1.61
219138,-6.22,-1.23,19.71,0.46,8.73,1.50
219173,-6.71,-1.76,16.80,0.58,8.73,1.49
219208,-3.99,-2.41,14.14,0.74,8.73,1.63
219243,-1.17,-5.05,11.91,0.78,8.73,1.78
219278,0.34,-5.77,10.82,0.71,8.73,1.93
219313,5.37,-5.57,11.69,0.63,8.73,1.95
219348,7.91,-4.95,12.66,0.58,8.73,1.86
219388,10.48,-2.43,16.48,0.64,8.73,1.70
219423,11.45,-2.83,18.95,0.71,8.73,1.63
219458,12.13,-3.24,21.02,0.88,8.73,1.63
219493,11.68,-4.41,23.70,0.97,8.73,1.70
219528,10.32,-4.61,26.47,0.97,8.73,1.79
219563,8.39,-6.67,28.57,0.97,8.73,1.92
219598,5.85,-7.23,30.02,0.90,8.73,2.08
219633,2.96,-7.94,30.71,0.78,8.73,2.14
219668,-0.32,-7.16,31.20,0.65,8.73,2.08
219703,-3.25,-5.02,30.44,0.61,8.73,1.94
219738,-5.05,-3.67,27.72,0.60,8.73,1.84
219773,-6.98,-3.52,25.59,0.76,8.73,1.76
219808,-7.25,-4.24,22.05,0.78,8.73,1.76
219843,-7.09,-3.25,19.19,0.79,8.73,1.78
219878,-6.97,-2.91,16.37,0.80,8.73,1.81
219913,-4.23,-2.28,14.26,0.78,8.73,1.80
219948,-0.85,-1.62,12.77,0.75,8.73,1.72
219983,1.87,-1.01,12.25,0.75,8.73,1.65
220018,5.34,-0.08,13.03,0.80,8.73,1.56
220053,7.23,-0.07,13.58,0.91,8.73,1.50
220088,11.24,-1.77,15.95,1.08,8.73,1.51
220123,12.61,-4.68,17.97,1.13,8.73,1.58
220158,12.62,-4.23,21.83,1.13,8.73,1.64
220193,12.61,-4.96,24.73,1.10,8.73,1.69
220228,10.86,-6.13,27.48,1.07,8.73,1.69
220263,8.18,-6.35,29.05,1.03,8.73,1.60
220298,6.47,-6.11,30.62,1.03,8.73,1.58
220334,3.34,-6.04,30.89,1.06,8.73,1.53
220368,0.20,-5.15,30.12,1.16,8.73,1.51
220403,-3.30,-4.94,29.36,1.20,8.73,1.56
220438,-5.03,-4.52,26.59,1.28,8.73,1.64
220473,-6.56,-5.41,23.66,1.37,8.73,1.73
220508,-6.39,-5.65,20.21,1.38,8.71,1.87
220543,-6.32,-4.41,17.72,1.30,8.63,1.99
220578,-5.63,-3.70,14.91,1.19,8.62,2.07
220613,-4.89,-2.94,13.19,1.04,8.62,2.07
220648,-2.30,-1.70,12.41,0.92,8.69,2.01
220683,1.41,-0.99,12.02,0.84,8.73,1.87
220718,4.95,-0.64,12.21,0.83,8.73,1.74
220753,7.44,-1.81,12.54,0.84,8.73,1.69
220788,10.14,-3.42,15.32,0.83,8.73,1.68
220823,11.60,-6.09,18.48,0.71,8.73,1.67
220858,12.62,-6.66,21.62,0.54,8.73,1.59
220893,12.06,-6.09,24.50,0.48,8.73,1.45
220928,10.49,-4.41,27.18,0.49,8.73,1.30
220963,7.92,-2.74,29.31,0.62,8.73,1.24
220998,5.51,-3.86,30.38,0.74,8.73,1.35
221033,2.70,-5.24,31.20,0.80,8.73,1.51
221068,-0.56,-5.00,30.83,0.75,8.73,1.64
221103,-3.50,-3.09,29.89,0.75,8.73,1.62
221138,-5.61,-2.72,27.46,0.85,8.73,1.56
221173,-6.43,-3.40,24.22,0.97,8.73,1.57
221207,-6.39,-2.84,21.31,1.06,8.73,1.63
221241,-6.11,-2.40,18.27,1.01,8.71,1.66
221276,-5.70,-1.38,15.93,0.93,8.71,1.65
221311,-4.40,-0.21,13.72,0.88,8.72,1.62
221346,-1.20,0.39,12.80,0.88,8.73,1.52
221381,1.19,0.09,12.22,0.88,8.73,1.56
221421,5.76,-2.41,12.28,0.95,8.73,1.65
221456,8.00,-3.96,12.35,0.86,8.73,1.74
221491,9.87,-5.40,14.94,0.80,8.73,1.73
221526,11.22,-5.31,18.13,0.74,8.73,1.68
221561,12.01,-5.28,20.89,0.69,8.73,1.62
221596,11.75,-5.06,23.91,0.69,8.73,1.57
221631,10.70,-4.20,26.65,0.70,8.73,1.50
221666,8.43,-3.61,29.17,0.74,8.73,1.42
221701,5.98,-3.69,30.38,0.78,8.73,1.39
221736,3.06,-3.96,31.00,0.87,8.73,1.34
221771,-0.31,-3.55,31.18,0.98,8.73,1.29
221806,-3.01,-3.69,28.84,1.08,8.73,1.30
221841,-5.35,-3.98,26.93,1.13,8.73,1.40
221876,-7.26,-2.81,25.28,1.15,8.73,1.47
221911,-6.73,-3.79,21.41,1.11,8.73,1.53
221946,-7.28,-1.95,19.20,0.97,8.73,1.51
221981,-5.31,0.93,16.66,0.94,8.73,1.50
222016,-3.80,1.53,14.55,0.95,8.73,1.45
222051,-0.30,1.18,12.57,1.02,8.73,1.37
222086,1.11,0.75,12.13,1.08,8.73,1.38
222121,4.86,-0.11,12.24,1.13,8.73,1.45
222156,7.51,-1.82,12.59,1.11,8.73,1.61
222191,10.71,-5.10,14.70,1.05,8.73,1.69
222226,12.47,-5.46,18.19,1.02,8.73,1.72
222261,13.08,-5.18,21.28,0.99,8.70,1.74
222296,12.23,-5.19,23.55,0.99,8.63,1.78
222332,10.56,-5.36,25.88,0.96,8.60,1.81
222366,7.90,-5.57,27.71,0.89,8.55,1.82
222401,5.41,-6.14,28.95,0.79,8.52,1.80
222436,2.68,-6.72,29.82,0.74,8.62,1.72
222471,0.11,-6.80,30.48,0.69,8.68,1.74
222506,-1.96,-6.59,28.76,0.56,8.73,1.77
222541,-5.56,-5.96,28.65,0.36,8.73,1.76
222576,-6.73,-3.66,24.75,0.26,8.72,1.62
222611,-7.50,-1.16,22.15,0.22,8.73,1.48
222646,-7.14,-1.00,18.88,0.28,8.73,1.31
222681,-6.67,0.08,16.95,0.42,8.73,1.25
222716,-4.57,-0.83,14.46,0.59,8.73,1.31
222751,-0.41,-2.39,12.43,0.70,8.73,1.38
222786,2.66,-2.91,11.16,0.73,8.73,1.49
222821,6.10,-3.17,10.87,0.73,8.71,1.55
222856,8.72,-3.65,11.58,0.68,8.66,1.59
222891,10.20,-4.94,13.36,0.63,8.63,1.58
222926,10.93,-5.21,16.46,0.62,8.63,1.54
222961,11.50,-3.72,19.66,0.63,8.63,1.49
222996,11.39,-4.38,22.36,0.73,8.62,1.48
223032,10.67,-4.55,25.11,0.80,8.60,1.52
223066,8.94,-4.54,27.23,0.83,8.62,1.54
223101,6.22,-5.23,28.72,0.86,8.58,1.63
223136,3.99,-6.79,29.90,0.84,8.60,1.69
223171,1.40,-6.32,30.63,0.83,8.63,1.71
223206,-1.28,-5.96,30.69,0.81,8.73,1.72
223241,-3.20,-5.28,28.05,0.82,8.73,1.70
223276,-5.23,-4.19,25.73,0.86,8.73,1.67
223311,-6.91,-4.13,23.32,0.90,8.73,1.65
223347,-6.76,-4.35,19.66,0.92,8.73,1.66
223381,-4.66,-4.33,15.96,0.95,8.67,1.67
223416,-3.22,-2.46,13.44,0.92,8.57,1.66
223456,-2.11,-2.45,11.09,0.87,8.54,1.58
223491,0.71,-1.03,10.68,0.89,8.58,1.47
223526,4.08,-0.12,11.37,0.99,8.62,1.32
223561,7.15,-0.06,12.20,1.17,8.59,1.20
223596,9.32,-2.02,12.07,1.32,8.55,1.24
223631,10.76,-3.68,13.51,1.32,8.58,1.39
223666,11.41,-4.74,17.82,1.23,8.58,1.53
223701,10.69,-4.34,19.28,1.01,8.61,1.59
223736,10.42,-6.90,24.13,1.02,8.61,1.58
223771,10.05,-6.54,26.48,0.85,8.53,1.54
223806,6.88,-6.53,27.72,0.85,8.56,1.47
223842,4.02,-5.32,28.94,0.86,8.57,1.57
223876,1.73,-7.17,29.17,0.86,8.62,1.68
223911,-0.63,-6.00,29.24,0.77,8.60,1.77
223946,-3.32,-5.04,27.77,0.74,8.60,1.73
223981,-5.34,-4.16,26.34,0.72,8.56,1.67
224016,-6.91,-3.43,23.94,0.86,8.56,1.67
224051,-7.36,-3.71,20.72,0.92,8.60,1.72
224086,-7.27,-1.98,17.64,0.94,8.59,1.75
224121,-5.65,-2.05,14.48,0.94,8.57,1.82
224156,-3.31,-1.65,12.31,0.89,8.50,1.84
224191,-0.95,-1.20,10.87,0.81,8.48,1.81
224226,0.11,-1.15,10.56,0.76,8.53,1.79
224261,3.48,-2.90,11.03,0.71,8.59,1.78
224296,6.11,-2.88,11.59,0.70,8.65,1.71
224332,8.58,-2.49,13.40,0.72,8.72,1.65
224366,9.96,-3.87,17.51,0.73,8.73,1.65
224401,11.40,-4.33,20.26,0.76,8.73,1.62
224436,12.15,-3.56,23.91,0.82,8.73,1.63
224471,10.96,-5.25,27.04,0.87,8.73,1.64
224506,8.81,-6.38,28.68,0.86,8.73,1.61
224541,6.82,-6.60,30.01,0.83,8.72,1.59
224576,4.41,-5.94,30.52,0.80,8.73,1.55
224611,0.46,-7.60,30.39,0.78,8.67,1.60
224646,-2.63,-6.00,30.20,0.75,8.70,1.63
224682,-4.79,-5.10,27.13,0.67,8.70,1.66
224716,-6.18,-3.57,24.68,0.60,8.70,1.60
224751,-8.48,-1.85,23.20,0.60,8.71,1.52
224786,-7.85,-1.76,20.13,0.62,8.73,1.45
224821,-5.79,-1.15,17.11,0.68,8.73,1.41
224856,-3.73,0.39,14.20,0.77,8.71,1.43
224891,-1.01,0.52,11.80,0.81,8.66,1.36
224926,1.56,1.22,11.03,0.88,8.62,1.24
224961,4.10,2.51,11.47,1.02,8.67,1.19
224996,8.59,0.79,13.07,1.15,8.69,1.22
225031,10.22,-1.77,14.46,1.24,8.68,1.31
225066,10.39,-1.46,16.36,1.23,8.68,1.43
225101,10.97,-2.62,19.28,1.14,8.71,1.53
225136,11.75,-4.39,22.34,1.15,8.66,1.59
225171,11.24,-5.69,24.73,1.14,8.63,1.64
225206,9.68,-5.58,27.43,1.09,8.68,1.65
225241,6.69,-5.61,29.29,1.07,8.63,1.64
225276,4.85,-6.56,29.80,1.05,8.59,1.65
225311,1.78,-6.45,29.87,1.07,8.55,1.65
225346,-1.06,-5.02,28.98,1.12,8.52,1.60
225381,-3.51,-4.48,26.50,1.23,8.48,1.57
225416,-5.45,-3.86,24.46,1.36,8.39,1.62
225451,-6.54,-5.51,21.05,1.42,8.33,1.75
225491,-7.93,-5.15,19.11,1.34,8.34,1.92
225526,-7.17,-5.53,16.17,1.26,8.38,2.08
225561,-4.26,-5.05,13.44,1.09,8.43,2.17
225596,-2.86,-4.51,11.26,0.91,8.44,2.18
225631,-0.84,-4.24,10.04,0.76,8.45,2.13
225666,1.64,-4.55,9.88,0.60,8.47,2.10
225701,4.64,-4.87,10.70,0.48,8.53,2.00
225736,6.71,-4.37,11.29,0.30,8.63,1.93
225771,8.81,-3.26,13.86,0.23,8.73,1.82
225806,10.46,-3.16,18.12,0.21,8.73,1.67
225841,11.98,-3.80,22.22,0.25,8.73,1.50
225876,12.20,-4.44,24.93,0.34,8.73,1.36
225911,10.20,-3.80,27.65,0.43,8.73,1.28
225946,7.15,-3.86,29.08,0.61,8.73,1.30
225981,4.41,-3.96,30.44,0.71,8.73,1.36
226016,1.60,-4.38,30.94,0.80,8.73,1.44
226051,-1.25,-3.46,31.19,0.85,8.73,1.41
226086,-3.58,-3.01,30.75,1.04,8.73,1.33
226121,-4.46,-2.68,27.42,1.22,8.73,1.36
226156,-6.26,-4.81,24.58,1.34,8.73,1.47
226191,-7.66,-3.64,21.44,1.35,8.73,1.59
226226,-6.49,-2.76,17.98,1.24,8.73,1.64
226261,-4.47,-2.89,15.36,1.11,8.73,1.61
226295,-4.49,-1.55,13.27,1.07,8.73,1.57
226331,-1.15,-1.26,12.94,1.06,8.73,1.50
226365,2.93,-1.53,12.71,1.09,8.73,1.47
226400,5.91,-2.25,11.58,1.09,8.67,1.51
226435,8.79,-5.53,11.78,1.00,8.57,1.64
226470,10.42,-7.30,13.10,0.70,8.51,1.77
226505,11.44,-6.13,16.13,0.39,8.51,1.73
226540,11.97,-4.29,19.11,0.32,8.55,1.60
226575,12.31,-3.73,22.42,0.36,8.61,1.48
226610,11.15,-4.14,25.55,0.43,8.68,1.42
226645,9.14,-4.09,28.53,0.51,8.73,1.39
226680,6.45,-3.23,30.44,0.55,8.70,1.41
226715,3.78,-4.48,32.01,0.59,8.72,1.47
226750,0.97,-4.78,30.21,0.55,8.73,1.57
226785,-2.09,-3.93,28.85,0.50,8.73,1.54
226821,-4.81,-2.22,28.14,0.44,8.73,1.48
226855,-6.54,-2.06,25.59,0.48,8.73,1.40
226890,-6.08,-2.02,22.02,0.54,8.73,1.33
226925,-7.33,-0.79,20.14,0.58,8.73,1.22
226960,-6.59,-0.83,17.46,0.67,8.73,1.18
226995,-4.40,-0.98,14.35,0.82,8.73,1.18
227030,-1.10,-1.08,12.02,0.96,8.73,1.19
227065,2.36,-0.86,11.57,1.03,8.73,1.18
227100,5.16,-0.70,11.43,1.15,8.71,1.27
227135,7.03,-2.99,11.33,1.20,8.68,1.41
227170,9.41,-3.44,13.71,1.22,8.73,1.54
227205,11.85,-2.71,17.19,1.29,8.73,1.65
227240,12.70,-3.40,20.19,1.45,8.73,1.80
227275,12.33,-4.70,23.59,1.54,8.72,2.05
227310,11.61,-7.94,26.14,1.43,8.70,2.28
227345,9.10,-8.01,28.51,1.22,8.73,2.35
227380,6.63,-8.17,29.66,0.99,8.73,2.32
227415,3.39,-8.03,31.34,0.78,8.73,2.24
227450,-0.89,-7.67,31.99,0.66,8.73,2.12
227485,-3.75,-5.76,32.30,0.63,8.73,1.97
227525,-4.89,-5.44,29.67,0.48,8.73,1.90
227560,-6.05,-4.96,26.25,0.49,8.73,1.81
227595,-5.32,-3.29,22.39,0.35,8.73,1.66
227630,-6.51,-0.52,19.80,0.29,8.73,1.44
227665,-4.78,1.10,16.98,0.38,8.73,1.32
227700,-3.08,-0.00,14.45,0.56,8.73,1.26
227735,-0.04,-1.18,13.12,0.66,8.73,1.25
227770,3.73,-1.51,12.90,0.77,8.73,1.28
227805,6.79,-1.43,14.06,0.90,8.73,1.27
227840,10.04,-1.86,15.38,1.04,8.73,1.27
227875,10.52,-2.17,17.81,1.18,8.73,1.31
227910,10.85,-3.34,19.62,1.18,8.73,1.41
227945,11.99,-5.68,21.67,1.13,8.73,1.46
227980,12.41,-6.56,25.22,1.05,8.73,1.45
228015,11.55,-6.44,28.04,1.01,8.73,1.37
228050,8.96,-6.39,30.25,1.00,8.73,1.18
228085,6.25,-4.25,31.21,1.08,8.73,1.12
228120,2.15,-6.04,30.99,1.26,8.73,1.24
228155,-0.86,-5.99,30.52,1.34,8.73,1.44
228190,-3.96,-6.65,29.37,1.28,8.73,1.60
228225,-6.27,-6.61,27.46,1.27,8.73,1.71
228260,-6.93,-4.79,25.04,1.32,8.73,1.79
228295,-5.23,-6.13,20.31,1.31,8.73,1.87
228331,-5.54,-5.19,17.33,1.23,8.73,1.93
228365,-3.32,-3.82,14.21,1.10,8.73,1.94
228400,-1.55,-3.17,11.65,0.98,8.73,1.74
228435,1.93,-1.76,10.58,0.93,8.73,1.50
228470,5.09,-2.30,11.79,0.98,8.73,1.36
228505,6.61,-2.82,12.21,1.06,8.73,1.38
228540,9.60,-3.78,13.70,1.07,8.73,1.46
228575,10.98,-4.76,15.12,0.98,8.71,1.54
228610,11.24,-4.36,17.77,0.84,8.72,1.58
228645,11.26,-4.73,20.62,0.81,8.73,1.58
228680,11.78,-4.89,23.58,0.81,8.73,1.56
228715,10.38,-4.40,26.92,0.77,8.73,1.53
228750,7.59,-5.33,29.15,0.84,8.73,1.52
228785,4.94,-4.72,31.19,0.87,8.73,1.51
228821,1.78,-4.03,31.74,0.91,8.73,1.42
228855,-1.00,-5.47,29.89,0.96,8.73,1.40
228890,-3.68,-4.85,28.03,0.94,8.73,1.47
228925,-5.49,-4.81,26.17,0.90,8.73,1.50
228960,-6.27,-3.49,23.17,0.81,8.73,1.51
228995,-7.15,-2.51,20.41,0.79,8.73,1.47
229030,-6.69,-0.16,18.08,0.80,8.73,1.43
229065,-3.96,0.01,14.99,0.87,8.73,1.44
229100,-3.07,0.06,12.73,0.92,8.71,1.46
229135,0.00,0.19,11.68,0.96,8.69,1.54
229170,3.51,-0.65,11.75,0.99,8.66,1.62
229205,5.52,-1.35,11.73,0.99,8.63,1.65
229240,7.53,-1.95,12.90,1.05,8.68,1.66
229275,9.67,-2.30,15.35,1.17,8.69,1.69
229310,11.33,-2.34,17.99,1.28,8.64,1.78
229346,12.06,-5.49,20.40,1.38,8.63,1.93
229380,11.95,-7.00,23.50,1.35,8.64,2.14
229415,10.42,-7.90,26.54,1.14,8.68,2.24
229450,8.44,-9.12,28.54,0.94,8.69,2.23
229485,4.68,-8.97,30.23,0.78,8.67,2.18
229520,1.75,-7.52,30.64,0.60,8.69,2.07
229560,-0.97,-6.68,30.19,0.49,8.70,1.94
229595,-3.27,-5.90,27.92,0.39,8.73,1.83
229630,-5.67,-4.37,27.25,0.26,8.73,1.71
229665,-6.67,-3.13,24.47,0.16,8.73,1.55
229700,-7.18,-2.99,21.51,0.12,8.73,1.31
229735,-6.88,-0.33,18.93,0.17,8.73,1.07
229770,-4.82,1.42,16.26,0.34,8.73,0.86
229804,-2.63,3.09,14.48,0.57,8.73,0.67
229839,0.78,4.51,13.43,0.87,8.73,0.64
229873,5.77,3.81,14.10,1.14,8.73,0.72
229907,6.30,1.67,11.83,1.36,8.73,0.89
229942,8.60,-2.09,12.97,1.54,8.73,1.10
229977,9.52,-3.53,16.90,1.60,8.73,1.33
230012,11.89,-3.46,20.84,1.66,8.73,1.57
230047,12.20,-5.73,23.96,1.70,8.73,1.82
230081,11.18,-8.92,27.39,1.55,8.73,2.01
230115,9.25,-9.05,29.82,1.34,8.73,2.12
230150,7.55,-8.48,32.09,1.13,8.73,2.15
230185,4.33,-8.02,31.89,0.96,8.73,2.14
230220,0.03,-7.88,31.34,0.84,8.73,2.14
230255,-3.08,-8.16,30.21,0.65,8.73,2.11
230290,-5.37,-7.52,27.82,0.47,8.73,2.01
230326,-7.77,-6.19,26.22,0.33,8.73,1.84
230360,-8.83,-4.41,23.59,0.25,8.73,1.65
230395,-7.54,-4.16,20.08,0.24,8.73,1.47
230430,-4.66,-2.94,16.17,0.27,8.73,1.26
230465,-5.08,-1.96,13.59,0.39,8.73,1.12
230500,-1.52,1.34,13.05,0.55,8.73,1.05
230535,1.07,1.93,14.31,0.71,8.73,1.08
230570,7.83,-0.34,14.43,0.88,8.73,1.15
230605,10.14,-1.82,13.56,1.02,8.73,1.19
230639,11.79,-2.68,15.04,1.16,8.73,1.24
230674,11.98,-3.95,18.10,1.18,8.73,1.38
230709,12.05,-5.08,21.28,1.20,8.71,1.51
230743,11.93,-6.03,23.23,1.28,8.62,1.65
230778,10.73,-6.60,25.73,1.35,8.54,1.89
230813,9.09,-8.39,27.25,1.28,8.46,2.14
230848,5.85,-8.75,28.99,1.12,8.40,2.30
230882,2.60,-8.91,29.73,0.93,8.44,2.32
230917,-0.34,-7.48,29.67,0.85,8.44,2.23
230952,-3.09,-6.25,28.13,0.82,8.48,2.08
230987,-5.17,-5.42,24.98,0.78,8.45,2.00
231022,-7.02,-5.49,22.02,0.75,8.37,1.92
231057,-8.37,-4.72,20.45,0.70,8.37,1.87
231092,-6.88,-4.65,17.42,0.69,8.33,1.82
231127,-8.10,-3.53,14.75,0.71,8.25,1.84
231162,-4.03,-4.33,11.59,0.70,8.23,1.81
231197,-2.13,-1.70,10.01,0.60,8.27,1.62
231232,2.01,-1.23,10.16,0.62,8.31,1.39
231267,5.95,-0.68,10.10,0.71,8.29,1.23
231302,8.02,-0.78,9.79,0.80,8.27,1.18
231338,9.94,-2.50,11.46,0.92,8.28,1.19
231372,11.01,-2.44,14.50,0.91,8.20,1.23
231407,11.82,-4.00,15.74,0.86,8.14,1.27
231442,12.92,-5.03,17.31,0.77,8.14,1.23
231477,11.37,-5.32,20.39,0.75,8.15,1.19
231512,8.92,-5.26,23.44,0.74,8.18,1.08
231547,7.92,-4.07,25.90,0.78,8.17,0.93
231587,5.26,-3.19,27.59,0.85,8.16,0.84
231622,2.90,-3.80,28.23,1.01,8.24,0.82
231657,0.64,-4.81,28.29,1.24,8.24,0.87
231692,-2.40,-5.39,27.24,1.32,8.27,1.04
231727,-5.00,-6.04,26.01,1.23,8.30,1.28
231762,-6.78,-4.08,24.78,1.11,8.35,1.43
231797,-7.66,-3.69,22.47,0.94,8.41,1.46
231832,-7.57,-2.65,19.30,0.79,8.49,1.40
231867,-6.59,-1.95,15.79,0.77,8.51,1.37
231902,-3.85,-0.89,13.32,0.81,8.51,1.37
231937,-2.89,0.19,11.70,0.83,8.53,1.31
231972,0.63,0.26,10.60,0.91,8.50,1.36
232007,4.45,0.61,11.09,0.95,8.45,1.42
232042,6.60,-0.41,10.51,0.96,8.33,1.43
232077,7.93,-2.04,10.64,0.94,8.28,1.48
232112,9.74,-3.13,12.14,0.95,8.25,1.52
232147,10.89,-3.82,14.86,0.94,8.23,1.57
232182,11.39,-3.72,18.25,0.96,8.24,1.61
232217,11.45,-3.11,21.69,1.04,8.22,1.71
232252,10.49,-6.34,23.82,1.07,8.20,1.84
232287,9.37,-4.86,26.33,0.99,8.28,1.93
