timestamp,accelX,accelY,accelZ,gyroX,gyroY,gyroZ
98292,10.84,-6.17,27.14,1.19,8.73,1.52
98328,9.02,-6.43,29.37,1.08,8.73,1.39
98362,6.39,-6.74,30.56,1.07,8.73,1.42
98397,2.59,-6.40,30.30,1.07,8.68,1.49
98432,-0.41,-7.23,28.76,1.05,8.62,1.63
98467,-3.56,-7.28,27.18,0.92,8.60,1.74
98502,-6.44,-5.99,26.43,0.75,8.64,1.77
98537,-7.79,-7.28,22.91,0.48,8.69,1.75
98572,-7.70,-1.56,20.11,0.34,8.73,1.60
98606,-5.06,-1.55,16.89,0.45,8.70,1.54
98641,-6.16,-1.22,14.54,0.49,8.73,1.41
98676,-4.72,-0.63,13.78,0.61,8.73,1.49
98711,-2.87,-1.40,13.10,0.72,8.73,1.65
98747,1.12,-3.80,13.08,0.71,8.73,1.74
98781,5.24,-3.84,13.65,0.68,8.73,1.76
98817,7.91,-3.81,14.02,0.73,8.73,1.75
98851,10.47,-2.19,17.31,0.84,8.73,1.67
98886,11.71,-2.91,19.14,1.10,8.73,1.69
98921,12.62,-4.70,22.79,1.09,8.73,1.79
98956,12.06,-7.29,25.93,1.06,8.73,1.83
98991,11.14,-8.07,29.14,0.92,8.73,1.75
99026,7.56,-7.13,31.57,0.85,8.73,1.64
99061,4.05,-7.69,31.72,0.81,8.73,1.71
99096,0.19,-5.89,32.43,0.72,8.73,1.69
99132,-2.76,-7.32,30.23,0.61,8.73,1.79
99166,-5.23,-4.52,29.19,0.46,8.73,1.73
99201,-6.15,-4.24,26.76,0.40,8.73,1.60
99236,-7.43,-3.30,24.90,0.17,8.73,1.44
99271,-6.99,0.20,22.48,0.28,8.73,1.26
99306,-6.10,-0.45,19.54,0.43,8.73,1.12
99342,-4.83,0.90,16.56,0.60,8.73,1.05
99376,-1.39,0.86,14.45,0.84,8.73,1.02
99411,1.22,0.88,15.10,1.02,8.73,0.97
99446,3.99,2.37,15.18,1.29,8.73,0.94
99481,6.89,-0.69,15.28,1.58,8.73,1.10
99516,10.47,-2.92,19.94,1.61,8.73,1.39
99551,12.11,-8.45,23.41,1.45,8.73,1.64
99586,13.33,-7.92,26.98,1.12,8.73,1.71
99621,10.31,-7.01,30.17,1.01,8.73,1.69
99661,8.98,-6.93,32.42,1.02,8.73,1.78
99695,5.74,-7.17,34.21,1.05,8.73,2.08
99729,2.07,-9.35,32.86,0.93,8.73,2.46
99764,-0.40,-9.83,33.21,0.62,8.73,2.63
99799,-3.79,-7.61,33.10,0.36,8.73,2.50
99834,-5.51,-5.60,30.01,0.30,8.73,2.28
99869,-6.45,-4.53,26.72,0.38,8.73,2.10
99904,-8.64,-5.63,24.09,0.49,8.73,2.00
99938,-6.43,-4.90,21.39,0.55,8.73,1.99
99972,-3.20,-4.90,18.64,0.61,8.73,2.04
100007,-1.56,-4.91,15.59,0.58,8.73,1.98
100042,1.54,-4.28,14.80,0.55,8.73,1.92
100077,5.96,-3.70,16.09,0.54,8.73,1.82
100112,8.72,-5.53,14.72,0.52,8.73,1.79
100146,11.05,-3.88,16.43,0.49,8.73,1.72
100180,12.34,-3.53,20.05,0.63,8.73,1.62
100215,12.50,-4.47,22.71,0.80,8.73,1.60
100250,12.43,-5.18,25.65,0.86,8.73,1.61
100285,10.38,-6.10,29.17,0.94,8.73,1.71
100320,7.55,-5.57,31.22,0.88,8.73,1.77
100355,6.11,-6.76,32.33,0.84,8.73,1.86
100390,3.66,-6.89,32.70,0.81,8.73,1.75
100425,0.82,-5.50,32.69,0.89,8.73,1.60
100460,-1.96,-5.27,30.79,1.02,8.73,1.49
100495,-4.38,-5.70,28.38,1.06,8.73,1.53
100530,-6.50,-5.04,25.95,0.98,8.73,1.57
100565,-6.75,-4.88,22.98,0.84,8.73,1.53
100599,-7.10,-3.37,20.87,0.67,8.73,1.36
100634,-5.88,-0.57,17.95,0.62,8.73,1.16
100669,-3.23,2.26,16.14,0.77,8.73,1.00
100704,1.11,1.22,14.61,0.97,8.73,0.99
100739,5.53,-0.05,14.57,1.14,8.73,1.13
100774,7.69,-1.68,14.44,1.22,8.73,1.32
100809,9.69,-2.70,15.60,1.34,8.73,1.44
100845,10.55,-0.14,19.57,1.51,8.73,1.54
100879,11.12,-1.95,22.90,1.86,8.73,1.75
100914,10.84,-5.77,24.60,1.89,8.73,2.06
100949,12.23,-8.69,27.90,1.73,8.73,2.31
100984,9.44,-9.12,31.20,1.51,8.73,2.48
101019,5.71,-8.05,33.38,1.25,8.73,2.51
101054,2.75,-10.16,33.40,1.02,8.73,2.45
101089,0.70,-8.02,32.88,0.91,8.73,2.33
101124,-2.60,-7.98,32.19,0.86,8.73,2.16
101159,-5.49,-6.07,29.95,0.78,8.73,2.12
101194,-6.69,-5.21,26.82,0.71,8.73,2.07
101229,-7.45,-5.29,23.28,0.61,8.73,1.98
101264,-6.32,-3.81,20.68,0.57,8.73,1.90
101299,-3.50,-2.85,17.08,0.60,8.73,1.86
101333,-1.65,-4.22,14.08,0.61,8.73,1.89
101369,2.54,-4.92,14.14,0.57,8.73,1.94
101403,5.60,-4.83,14.52,0.45,8.73,1.95
101438,6.65,-5.21,14.40,0.39,8.73,1.88
101473,10.01,-5.37,16.66,0.32,8.73,1.81
101508,11.35,-4.90,19.89,0.33,8.73,1.69
101542,12.59,-4.31,21.50,0.40,8.73,1.56
101576,12.39,-4.16,24.38,0.54,8.73,1.46
101611,11.22,-4.73,27.88,0.68,8.73,1.39
101646,9.31,-5.16,30.97,0.77,8.73,1.36
101686,6.22,-4.12,32.77,0.81,8.73,1.32
101721,3.03,-5.14,32.66,1.00,8.73,1.24
101755,-0.01,-4.79,32.50,1.20,8.73,1.17
101790,-3.30,-5.14,31.88,1.32,8.73,1.24
101825,-5.31,-3.89,29.69,1.39,8.73,1.36
101860,-7.36,-7.33,27.00,1.24,8.73,1.52
101895,-7.87,-4.33,24.16,1.00,8.73,1.53
101930,-6.78,0.16,21.79,0.84,8.73,1.39
101965,-3.68,2.09,19.12,0.86,8.73,1.21
102000,-0.94,1.10,15.80,1.00,8.73,1.07
102036,2.48,0.77,14.49,1.14,8.73,1.04
102070,6.67,0.57,15.48,1.30,8.73,1.12
102105,8.69,-0.07,15.57,1.40,8.73,1.29
102140,10.06,-3.54,15.73,1.42,8.73,1.52
102175,11.64,-4.25,18.77,1.37,8.73,1.70
102210,12.95,-3.73,21.71,1.42,8.73,1.83
102245,13.01,-3.81,24.71,1.53,8.73,2.05
102280,10.73,-6.24,27.85,1.56,8.73,2.37
102315,7.67,-8.70,29.68,1.38,8.73,2.63
102350,5.42,-8.80,31.63,1.11,8.73,2.71
102385,3.02,-9.81,33.05,0.83,8.73,2.68
102421,-0.08,-8.52,34.38,0.62,8.73,2.56
102455,-3.13,-6.29,33.57,0.53,8.73,2.37
102490,-5.17,-4.56,30.37,0.54,8.73,2.17
102525,-6.78,-4.14,26.71,0.63,8.73,2.06
102560,-6.22,-4.03,23.07,0.76,8.73,2.04
102595,-3.60,-4.73,18.91,0.90,8.73,2.10
102630,-1.59,-6.09,15.09,0.91,8.73,2.17
102664,-0.44,-6.13,13.24,0.84,8.73,2.14
102699,1.68,-5.90,12.21,0.71,8.73,2.08
102734,5.03,-4.79,13.12,0.64,8.73,1.93
102769,7.81,-4.36,14.09,0.65,8.73,1.77
102804,9.70,-2.21,15.43,0.70,8.73,1.71
102840,10.72,-3.64,17.91,0.73,8.73,1.71
102874,10.69,-5.73,21.40,0.68,8.73,1.68
102909,10.43,-6.37,23.92,0.68,8.73,1.65
102944,10.76,-5.88,26.75,0.76,8.73,1.70
102979,9.40,-4.70,29.70,0.81,8.73,1.77
103014,7.08,-5.73,31.09,0.81,8.73,1.92
103049,3.90,-7.01,32.16,0.74,8.73,2.02
103084,0.92,-7.18,32.38,0.63,8.73,2.04
103119,-1.77,-5.90,31.97,0.53,8.73,1.92
103154,-4.00,-5.33,29.30,0.53,8.73,1.77
103189,-5.13,-4.37,25.83,0.59,8.73,1.66
103224,-7.00,-3.62,22.69,0.60,8.73,1.58
103259,-6.91,-3.83,19.30,0.56,8.73,1.47
103294,-5.99,-1.91,17.29,0.51,8.73,1.33
103330,-3.75,1.37,15.56,0.54,8.73,1.10
103364,-1.51,2.87,13.70,0.71,8.73,0.97
103399,0.24,1.24,12.72,0.92,8.73,1.03
103433,4.79,-0.56,13.41,1.05,8.73,1.20
103467,7.60,-2.79,14.47,1.10,8.73,1.39
103502,9.53,-3.23,17.06,1.14,8.73,1.49
103537,12.00,-3.48,20.09,1.19,8.73,1.61
103572,13.54,-4.99,23.32,1.28,8.73,1.73
103607,12.56,-6.76,26.54,1.26,8.73,1.83
103642,10.23,-7.98,29.17,1.13,8.73,1.87
103677,7.10,-8.12,31.35,1.01,8.73,1.82
103717,6.06,-7.68,32.81,0.94,8.73,1.74
103752,1.76,-7.49,32.58,0.97,8.73,1.69
103787,-2.24,-5.63,31.83,0.97,8.73,1.67
103822,-5.02,-6.10,29.11,0.92,8.73,1.68
103858,-5.88,-5.56,25.47,0.75,8.73,1.69
103892,-6.68,-3.10,23.32,0.65,8.73,1.62
103927,-7.93,-1.88,21.24,0.66,8.73,1.50
103962,-6.97,-1.66,19.57,0.77,8.73,1.50
103997,-3.28,-2.62,16.32,0.88,8.73,1.55
104032,0.47,-1.97,13.82,0.95,8.73,1.52
104067,2.06,-1.06,12.83,1.00,8.73,1.42
104102,5.99,-0.29,13.97,1.15,8.73,1.33
104137,8.03,1.23,14.88,1.41,8.73,1.28
104172,9.85,-0.61,17.11,1.67,8.73,1.40
104207,11.72,-3.08,20.01,1.79,8.73,1.64
104242,12.69,-5.76,22.53,1.86,8.73,1.94
104277,11.46,-8.58,26.23,1.71,8.73,2.22
104312,10.82,-8.49,29.33,1.47,8.73,2.37
104347,7.82,-10.38,32.61,1.28,8.73,2.37
104383,5.31,-10.75,33.78,1.05,8.73,2.37
104417,1.94,-8.67,32.94,0.87,8.73,2.26
104452,-2.13,-7.79,32.00,0.81,8.73,2.16
104487,-4.85,-8.16,30.56,0.66,8.73,2.09
104522,-6.34,-5.66,29.40,0.52,8.73,1.97
104557,-7.07,-4.75,26.18,0.43,8.73,1.83
104592,-7.25,-2.03,23.16,0.39,8.73,1.64
104627,-6.10,-1.54,19.75,0.46,8.73,1.42
104662,-4.41,-0.92,17.03,0.52,8.73,1.20
104696,0.41,2.78,16.45,0.68,8.73,0.95
104731,2.86,1.69,15.79,0.96,8.73,0.92
104766,5.11,-0.98,15.79,1.10,8.73,1.05
104801,8.53,-2.26,17.98,1.16,8.73,1.25
104836,11.94,-6.79,20.17,1.05,8.73,1.42
104871,13.71,-4.86,24.69,0.95,8.73,1.45
104906,13.25,-5.80,27.29,0.92,8.73,1.42
104941,12.30,-6.99,29.53,0.94,8.73,1.47
104976,8.36,-5.36,31.34,1.01,8.73,1.57
105010,5.25,-7.10,32.04,1.00,8.73,1.79
105045,1.94,-7.40,32.47,0.92,8.73,2.01
105080,-0.58,-7.50,32.23,0.82,8.73,2.06
105114,-3.60,-6.96,32.25,0.76,8.73,1.99
105149,-5.14,-6.47,30.96,0.71,8.73,1.96
105184,-6.12,-4.56,27.53,0.78,8.73,1.90
105219,-6.53,-6.21,22.52,0.90,8.73,1.90
105254,-6.72,-4.66,19.73,0.94,8.73,1.98
105289,-4.20,-4.98,17.26,0.94,8.73,2.08
105325,-2.35,-4.50,15.68,0.88,8.73,2.08
105359,-0.42,-3.94,14.10,0.81,8.73,1.99
105394,3.93,-3.05,13.40,0.81,8.73,1.83
105429,6.28,-1.13,14.91,0.87,8.73,1.68
105464,9.18,-1.03,16.96,1.09,8.73,1.59
105499,11.56,-2.59,20.21,1.21,8.73,1.63
105534,12.19,-3.84,22.61,1.30,8.73,1.73
105569,11.99,-6.36,24.23,1.25,8.73,1.85
105604,10.74,-6.49,26.31,1.15,8.73,1.91
105639,9.25,-5.59,28.97,1.07,8.73,1.94
105674,7.66,-6.06,31.40,1.00,8.73,2.07
105709,4.87,-8.40,32.26,0.88,8.73,2.16
105749,-0.88,-8.01,32.24,0.67,8.73,2.17
105784,-2.99,-6.57,30.47,0.57,8.73,2.07
105819,-7.00,-5.56,30.35,0.51,8.73,1.92
105854,-7.58,-4.54,27.84,0.61,8.73,1.82
105889,-5.95,-5.15,23.52,0.64,8.73,1.76
105924,-4.90,-3.17,19.75,0.64,8.73,1.68
105959,-5.61,-2.48,16.96,0.62,8.73,1.55
105994,-2.37,-0.65,15.94,0.64,8.73,1.41
106029,1.15,1.12,15.73,0.76,8.73,1.29
106064,5.21,0.65,14.67,0.90,8.73,1.24
106100,8.41,-0.53,14.29,1.05,8.73,1.25
106134,11.34,-2.28,15.11,1.13,8.73,1.33
106169,12.20,-2.70,17.71,1.22,8.73,1.40
106204,11.77,-2.67,20.51,1.26,8.73,1.49
106239,11.97,-5.26,22.41,1.26,8.73,1.56
106274,11.65,-6.68,26.27,1.26,8.73,1.68
106309,8.66,-5.03,29.12,1.21,8.73,1.70
106344,5.24,-6.19,30.69,1.16,8.73,1.71
106380,3.24,-6.32,32.46,1.17,8.73,1.63
106414,-0.22,-5.64,31.66,1.33,8.73,1.55
106449,-2.66,-5.17,30.15,1.51,8.73,1.52
106483,-4.82,-5.19,28.95,1.69,8.73,1.59
106518,-6.32,-5.37,26.22,1.82,8.73,1.78
106553,-7.38,-6.63,23.23,1.81,8.73,2.03
106588,-8.24,-8.35,19.59,1.68,8.72,2.24
106623,-6.84,-6.83,16.86,1.49,8.69,2.42
106658,-4.57,-6.53,13.75,1.27,8.64,2.55
106693,-2.03,-5.28,12.08,1.00,8.68,2.50
106728,1.81,-4.96,11.40,0.78,8.72,2.38
106763,4.75,-2.93,12.30,0.67,8.73,2.15
106799,6.28,-1.92,12.07,0.69,8.73,1.94
106834,10.04,-2.44,14.58,0.70,8.73,1.86
106868,12.21,-4.19,17.90,0.71,8.73,1.82
106903,13.53,-3.97,19.82,0.65,8.73,1.77
106938,13.47,-4.98,22.57,0.58,8.73,1.71
106973,11.88,-4.57,25.00,0.54,8.73,1.67
107007,10.32,-3.42,27.68,0.54,8.73,1.60
107042,7.90,-4.47,29.82,0.59,8.73,1.61
107076,4.92,-4.47,31.68,0.61,8.73,1.59
107110,1.63,-3.55,32.03,0.58,8.73,1.54
107145,-1.25,-3.10,30.72,0.64,8.73,1.44
107180,-3.94,-1.37,28.82,0.80,8.73,1.31
107215,-6.50,-2.61,26.81,0.89,8.73,1.31
107249,-5.41,-2.57,22.74,0.80,8.73,1.28
107283,-6.11,-1.28,19.23,0.69,8.73,1.12
107318,-6.11,1.02,16.20,0.75,8.71,0.99
107352,-4.50,-0.34,14.02,0.88,8.68,0.97
107387,-2.20,0.06,11.97,1.04,8.69,0.97
107422,1.04,-0.01,11.65,1.18,8.68,1.10
107456,3.03,-0.67,11.20,1.28,8.71,1.22
107491,5.12,-0.78,13.38,1.38,8.72,1.35
107526,7.75,-1.75,12.83,1.55,8.73,1.43
107560,10.18,-2.00,14.70,1.66,8.73,1.60
107594,11.50,-3.20,18.55,1.68,8.73,1.83
107628,13.12,-6.51,21.96,1.73,8.73,2.04
107663,11.67,-7.35,24.74,1.62,8.73,2.30
107698,9.54,-9.46,27.71,1.44,8.73,2.52
107732,7.10,-8.58,30.86,1.20,8.73,2.61
107772,4.24,-11.60,33.37,0.98,8.73,2.74
107807,0.21,-8.94,35.99,0.73,8.73,2.65
107843,-2.57,-10.49,34.43,0.47,8.73,2.62
107877,-3.98,-5.85,30.29,0.21,8.73,2.47
107913,-5.36,-4.48,26.52,0.14,8.73,2.25
107947,-6.96,-3.39,23.58,0.15,8.73,2.00
107982,-6.31,-2.67,20.38,0.14,8.73,1.81
108017,-4.27,-2.74,17.94,0.25,8.73,1.70
108052,-3.47,-2.76,15.50,0.33,8.73,1.68
108086,1.33,-2.46,13.67,0.34,8.73,1.58
108121,5.82,-2.76,13.90,0.35,8.73,1.58
108156,5.17,-4.42,13.87,0.17,8.73,1.81
108191,8.63,-5.73,15.11,-0.11,8.73,1.78
108226,9.66,-3.48,19.31,-0.07,8.73,1.54
108261,11.84,-3.90,22.61,0.11,8.73,1.29
108297,12.49,-5.03,25.03,0.16,8.73,1.13
108331,11.00,-2.82,27.80,0.27,8.73,0.94
108366,9.19,-1.41,29.87,0.51,8.73,0.83
108401,7.20,-2.38,32.14,0.79,8.73,0.86
108436,3.95,-2.48,33.39,1.01,8.73,0.78
108471,-0.18,-5.71,33.91,1.31,8.73,0.86
108506,-2.36,-3.48,32.86,1.49,8.73,0.97
108541,-4.76,-4.80,30.16,1.68,8.73,1.14
108576,-6.27,-5.97,27.49,1.56,8.73,1.38
108611,-5.54,-4.34,23.79,1.56,8.73,1.56
108646,-6.46,-5.00,20.61,1.52,8.73,1.68
108681,-6.43,-2.39,18.26,1.35,8.73,1.74
108716,-3.62,-1.01,16.43,1.31,8.73,1.69
108751,-1.43,-0.74,13.94,1.30,8.73,1.56
108786,2.11,0.11,15.17,1.36,8.73,1.50
108821,6.18,0.48,15.19,1.50,8.73,1.47
108856,10.30,-3.32,16.10,1.62,8.73,1.67
108891,11.64,-5.01,18.91,1.55,8.73,1.86
108926,13.26,-4.55,21.07,1.59,8.73,2.02
108961,13.77,-3.20,23.77,1.61,8.73,2.23
108996,10.63,-8.07,26.04,1.66,8.73,2.53
109031,8.78,-9.18,28.86,1.45,8.73,2.77
109066,6.39,-8.88,32.57,1.12,8.73,2.85
109101,3.85,-9.97,32.81,0.85,8.73,2.82
109136,0.78,-8.64,33.33,0.59,8.73,2.59
109171,-2.75,-6.52,32.88,0.45,8.73,2.36
109206,-4.78,-6.54,29.26,0.33,8.73,2.18
109241,-6.87,-5.27,27.08,0.19,8.73,2.03
109276,-7.39,-3.69,24.93,0.03,8.73,1.84
109311,-6.49,-0.93,21.64,-0.01,8.73,1.56
109347,-6.82,-0.34,18.82,0.07,8.73,1.34
109381,-4.58,1.34,17.21,0.21,8.73,1.22
109416,-0.62,0.84,15.72,0.37,8.73,1.24
109451,3.19,-1.77,14.58,0.47,8.73,1.36
109486,7.22,-4.35,14.60,0.40,8.73,1.45
109521,10.27,-4.86,17.29,0.29,8.73,1.46
109556,11.25,-4.69,18.86,0.17,8.73,1.32
109591,11.61,-4.24,21.69,0.12,8.73,1.10
109626,11.20,-4.55,24.96,0.14,8.73,0.85
109661,11.17,-2.99,27.88,0.32,8.73,0.62
109696,10.20,-1.44,30.39,0.53,8.73,0.43
109731,7.88,-1.13,32.23,0.82,8.73,0.32
109766,4.37,-1.79,33.64,1.21,8.73,0.26
109806,1.29,-2.09,34.40,1.81,8.73,0.36
109841,-2.66,-3.19,34.29,2.25,8.73,0.61
109876,-6.38,-5.53,32.94,2.55,8.73,1.03
109910,-7.65,-9.89,29.78,2.45,8.73,1.56
109945,-8.89,-9.07,26.17,2.07,8.73,1.91
109980,-7.47,-7.30,22.24,1.75,8.73,2.11
110015,-3.39,-4.01,19.64,1.54,8.73,2.14
110050,0.97,-4.68,16.51,1.38,8.73,2.11
110085,3.89,-2.64,15.59,1.30,8.73,2.04
110120,7.81,-2.23,16.40,1.32,8.73,1.97
110155,9.58,-1.61,17.58,1.41,8.73,1.87
110190,11.38,-0.81,20.55,1.56,8.73,1.89
110224,11.37,-2.23,23.07,1.59,8.73,1.99
110259,12.06,-4.92,24.61,1.46,8.73,2.11
110294,12.39,-8.25,26.44,1.25,8.73,2.16
110329,10.23,-8.90,28.82,1.00,8.73,2.10
110364,8.48,-7.08,30.52,0.79,8.73,1.91
110398,5.68,-5.37,32.79,0.72,8.73,1.80
110433,2.22,-5.48,33.55,0.71,8.73,1.83
110468,-1.08,-6.46,32.42,0.56,8.73,1.96
110503,-4.05,-6.41,29.88,0.31,8.73,2.01
110538,-5.61,-4.41,27.32,0.12,8.73,1.91
110573,-5.56,-1.47,24.64,0.13,8.73,1.73
110608,-7.45,-1.68,21.96,0.37,8.73,1.62
110643,-7.42,-3.31,19.10,0.61,8.73,1.72
110678,-3.91,-5.06,16.20,0.75,8.73,1.92
110713,-1.30,-4.75,13.85,0.68,8.73,2.01
110748,1.82,-3.58,13.05,0.59,8.73,2.04
110783,5.97,-4.41,13.06,0.49,8.73,2.03
110818,8.02,-5.10,13.12,0.33,8.73,1.93
110853,10.40,-4.63,15.33,0.25,8.73,1.77
110888,11.11,-4.21,18.50,0.25,8.73,1.59
110923,11.20,-4.51,21.14,0.25,8.73,1.41
110957,10.86,-3.20,24.84,0.29,8.73,1.23
110991,9.84,-2.97,27.84,0.40,8.73,1.02
111025,8.47,-3.16,30.36,0.59,8.73,0.86
111060,6.54,-2.40,32.67,0.78,8.73,0.82
111094,3.84,-2.55,33.64,1.07,8.73,0.84
111129,0.92,-2.93,34.11,1.37,8.73,0.94
111164,-1.99,-3.11,32.69,1.56,8.73,1.05
111199,-5.21,-3.68,30.77,1.76,8.73,1.25
111233,-6.32,-4.45,27.20,1.90,8.73,1.49
111267,-7.09,-7.13,23.20,1.80,8.73,1.76
111302,-8.19,-3.43,20.41,1.63,8.73,1.95
111336,-5.32,-4.25,17.74,1.51,8.73,2.08
111371,-3.04,-4.40,15.17,1.30,8.73,2.06
111406,0.88,-3.96,14.21,1.15,8.73,2.04
111440,4.47,-3.96,14.44,1.05,8.73,2.01
111475,7.37,-3.47,14.12,0.95,8.73,2.02
111510,10.14,-4.04,15.87,0.78,8.73,2.08
111545,11.57,-5.01,18.68,0.62,8.73,2.03
111580,11.97,-4.42,20.63,0.55,8.73,1.91
111615,12.23,-4.48,23.02,0.55,8.73,1.84
111650,11.10,-5.55,25.63,0.62,8.73,1.82
111685,9.67,-5.38,28.17,0.63,8.73,1.82
111720,6.55,-4.70,30.03,0.63,8.73,1.83
111755,3.83,-4.92,30.75,0.57,8.72,1.86
111790,1.03,-4.21,32.19,0.40,8.73,1.85
111830,-1.41,-4.73,31.36,0.33,8.73,1.75
111865,-4.57,-3.88,27.87,0.27,8.73,1.64
111900,-5.88,-1.64,25.01,0.25,8.73,1.51
111935,-6.16,-0.76,22.07,0.16,8.73,1.36
111971,-6.25,1.00,19.45,0.15,8.72,1.19
112005,-6.56,3.25,16.99,0.33,8.71,1.11
112039,-4.49,2.07,13.97,0.61,8.68,1.23
112073,-2.37,-1.49,11.81,0.79,8.65,1.44
112108,2.10,-3.81,11.10,0.85,8.56,1.60
112143,3.88,-3.64,10.36,0.82,8.50,1.67
112178,6.02,-2.70,10.96,0.82,8.52,1.64
112213,8.97,-2.91,12.46,0.92,8.62,1.56
112248,10.77,-3.21,15.22,1.07,8.62,1.52
112283,11.55,-4.03,17.67,1.07,8.60,1.54
112318,12.41,-4.52,20.21,1.09,8.61,1.58
112353,11.34,-5.21,23.33,1.08,8.60,1.61
112388,9.58,-6.97,25.77,0.95,8.63,1.48
112423,7.42,-5.78,28.10,0.88,8.63,1.27
112458,4.68,-5.41,29.00,0.89,8.58,1.01
112493,2.15,-5.10,28.84,1.07,8.59,0.83
112528,-0.69,-5.78,29.05,1.26,8.56,0.97
112563,-4.28,-5.93,28.73,1.23,8.60,1.22
112598,-6.11,-4.56,26.55,1.12,8.62,1.38
112633,-5.89,-3.44,23.44,0.98,8.59,1.45
112667,-6.00,-2.59,19.79,0.83,8.51,1.44
112702,-6.87,-1.31,16.69,0.76,8.46,1.35
112737,-6.14,-0.82,14.27,0.76,8.44,1.31
112773,-4.45,-1.96,11.74,0.82,8.39,1.34
112807,-6.67,-0.65,11.45,0.89,8.42,1.32
112842,3.44,-1.25,12.13,0.86,8.57,1.33
112877,5.41,-1.62,10.23,0.97,8.55,1.46
112912,6.31,-0.65,11.64,0.96,8.68,1.60
112947,9.89,-3.42,14.56,0.91,8.73,1.67
112982,10.79,-4.17,17.20,0.89,8.73,1.71
113017,11.94,-3.96,19.72,0.81,8.73,1.70
113052,12.08,-4.85,22.65,0.84,8.70,1.70
113087,10.88,-4.55,25.20,0.87,8.64,1.75
113122,9.35,-4.77,27.46,0.89,8.60,1.86
113157,6.58,-4.86,29.53,0.87,8.53,2.04
113192,3.84,-6.08,29.89,0.75,8.49,2.14
113227,1.18,-6.02,30.08,0.54,8.49,2.12
113262,-1.30,-5.66,29.01,0.43,8.52,1.97
113297,-4.03,-4.88,27.95,0.47,8.59,1.76
113332,-6.06,-4.64,26.31,0.54,8.64,1.67
113367,-6.69,-3.86,23.70,0.55,8.71,1.60
113402,-6.66,-1.76,20.61,0.52,8.73,1.49
113437,-6.66,-1.26,17.76,0.55,8.73,1.40
113472,-4.57,-0.90,15.49,0.62,8.73,1.41
113507,-2.99,-0.32,13.17,0.71,8.73,1.40
113542,-0.75,-1.14,12.16,0.77,8.73,1.45
113577,2.70,-2.76,11.96,0.78,8.73,1.54
113612,5.40,-4.03,12.47,0.78,8.73,1.57
113647,8.02,-4.70,13.69,0.73,8.73,1.62
113681,10.19,-5.31,16.35,0.70,8.73,1.60
113716,12.24,-5.73,19.46,0.66,8.73,1.56
113751,13.29,-4.79,21.89,0.66,8.73,1.48
113786,12.39,-4.72,25.02,0.75,8.73,1.49
113821,10.88,-5.16,27.53,0.87,8.73,1.58
113861,6.65,-5.34,30.54,0.89,8.73,1.80
113896,3.44,-6.98,30.54,0.84,8.73,1.94
113931,0.62,-6.72,30.65,0.71,8.73,2.07
113966,-1.80,-5.65,29.27,0.56,8.71,2.07
114001,-4.91,-2.94,31.15,0.50,8.73,1.96
114036,-5.49,-2.10,27.22,0.64,8.73,1.88
114071,-7.09,-3.54,23.03,0.74,8.73,1.78
114106,-9.10,-4.01,20.71,0.88,8.73,1.79
114141,-6.84,-4.72,17.05,0.92,8.73,1.90
114176,-3.63,-5.51,14.50,0.89,8.73,1.95
114210,-2.05,-5.48,12.73,0.81,8.73,1.90
114244,0.81,-3.50,11.86,0.73,8.73,1.78
114279,5.31,-2.49,12.76,0.73,8.73,1.68
114314,7.08,-4.51,13.14,0.71,8.73,1.66
114349,8.71,-4.71,13.83,0.64,8.73,1.66
114383,10.42,-3.77,16.31,0.55,8.73,1.63
114417,11.68,-4.00,19.42,0.47,8.73,1.58
114452,12.33,-3.72,22.98,0.45,8.73,1.43
114488,11.68,-4.48,26.36,0.57,8.73,1.37
114522,9.62,-4.87,28.81,0.67,8.73,1.36
114557,6.60,-5.22,30.08,0.78,8.73,1.42
114592,3.51,-6.04,30.44,0.81,8.73,1.46
114627,0.52,-5.70,32.06,0.84,8.73,1.47
114662,-1.59,-3.92,31.80,0.97,8.73,1.38
114696,-4.04,-3.17,30.20,1.18,8.73,1.33
114730,-5.29,-4.91,26.60,1.30,8.73,1.40
114765,-7.15,-4.05,24.07,1.27,8.73,1.51
114801,-7.18,-4.42,20.58,1.20,8.73,1.57
114836,-6.82,-2.32,17.95,1.07,8.73,1.55
114870,-4.15,0.06,15.86,1.02,8.73,1.44
114905,-0.25,1.65,14.50,1.06,8.73,1.34
114940,1.68,2.13,13.75,1.16,8.73,1.28
114975,4.96,1.88,14.09,1.29,8.73,1.31
115010,7.18,-0.09,14.92,1.37,8.73,1.45
115045,10.13,-4.19,15.18,1.35,8.73,1.64
115080,12.59,-4.87,18.27,1.28,8.73,1.75
115115,13.94,-4.62,22.01,1.25,8.73,1.83
115150,12.72,-5.83,24.38,1.27,8.73,1.94
115185,11.14,-7.13,26.69,1.18,8.73,2.03
115219,9.55,-6.41,27.84,1.04,8.73,2.10
115254,7.65,-7.58,29.75,0.88,8.73,2.15
115289,4.69,-8.76,31.94,0.75,8.73,2.18
115325,0.74,-7.64,32.24,0.59,8.73,2.10
115359,-2.60,-7.30,31.06,0.45,8.73,2.02
115394,-5.95,-6.49,29.95,0.23,8.73,1.96
115429,-7.07,-4.40,26.52,0.08,8.73,1.81
115464,-6.28,-1.58,22.89,-0.03,8.73,1.59
115499,-6.88,-0.52,20.13,0.02,8.73,1.35
115533,-6.71,0.72,17.91,0.20,8.73,1.23
115567,-4.07,-0.97,15.59,0.42,8.73,1.27
115602,-1.58,-1.39,13.44,0.58,8.73,1.37
115636,1.88,-3.67,13.21,0.58,8.73,1.53
115671,5.92,-4.28,12.41,0.54,8.73,1.64
115706,9.82,-5.48,13.37,0.45,8.73,1.66
115740,11.76,-4.82,15.97,0.39,8.73,1.59
115775,12.27,-3.42,18.98,0.42,8.73,1.47
115810,12.84,-3.47,21.43,0.50,8.73,1.37
115846,12.28,-4.92,24.87,0.64,8.73,1.35
115885,9.73,-5.52,27.95,0.72,8.73,1.34
115920,7.43,-4.38,30.26,0.81,8.73,1.32
115955,5.31,-4.58,32.23,0.93,8.73,1.43
115990,2.53,-5.56,32.73,1.00,8.73,1.54
116025,-0.33,-6.42,32.14,0.94,8.73,1.75
116061,-3.09,-6.03,29.35,0.84,8.73,1.80
116095,-5.60,-5.67,26.76,0.81,8.73,1.78
116130,-6.91,-3.74,24.03,0.75,8.73,1.73
116165,-6.08,-4.27,20.01,0.73,8.73,1.68
116200,-6.79,-4.21,17.89,0.76,8.73,1.65
116234,-6.41,-5.43,15.53,0.83,8.73,1.75
116268,-1.55,-5.65,13.32,0.81,8.73,1.77
116303,2.60,-4.25,12.08,0.78,8.73,1.84
116338,5.55,-4.01,11.60,0.72,8.73,1.86
116373,9.99,-3.19,13.24,0.73,8.73,1.65
116408,8.84,-2.83,14.21,0.82,8.65,1.50
116443,8.96,-2.38,15.01,0.88,8.73,1.46
116478,11.78,-2.64,19.30,0.97,8.73,1.48
116512,12.35,-3.31,22.28,0.89,8.73,1.47
116547,12.18,-8.57,22.38,0.75,8.68,1.43
116583,8.81,-2.69,26.68,0.76,8.73,1.35
116617,7.39,-5.62,30.20,0.86,8.73,1.45
116652,4.57,-2.98,31.80,0.96,8.73,1.66
116687,0.68,-5.03,30.47,0.85,8.73,1.77
116722,-2.25,-5.88,29.70,0.70,8.66,1.83
116757,-4.52,-4.03,28.96,0.66,8.71,1.74
116792,-6.00,-2.42,27.51,0.85,8.73,1.67
116827,-7.21,-3.35,24.76,1.21,8.73,1.71
116862,-6.78,-6.46,20.88,1.41,8.73,1.94
116897,-7.20,-5.11,17.85,1.33,8.73,2.15
116931,-4.30,-3.88,15.11,1.22,8.73,2.30
116966,-3.49,-5.74,12.86,1.06,8.73,2.33
117001,-0.71,-4.41,12.26,0.90,8.73,2.15
117036,3.05,-4.46,13.24,0.82,8.73,2.01
117071,6.36,-4.85,13.95,0.82,8.73,1.86
117106,9.34,-5.21,15.35,0.73,8.73,1.84
117141,10.92,-5.03,17.37,0.60,8.73,1.80
117176,11.78,-4.93,20.26,0.41,8.73,1.69
117211,12.12,-5.15,23.42,0.43,8.73,1.56
117245,12.09,-5.20,26.58,0.47,8.73,1.50
117280,10.61,-3.40,29.58,0.54,8.73,1.38
117316,8.50,-4.05,32.79,0.64,8.73,1.38
117350,4.49,-4.14,33.54,0.78,8.73,1.47
117385,0.39,-3.85,32.76,0.89,8.73,1.47
117420,-2.57,-3.42,30.93,0.97,8.73,1.39
117455,-5.04,-3.44,28.57,1.11,8.73,1.35
117490,-6.59,-3.62,26.70,1.29,8.73,1.39
117525,-6.93,-5.42,23.21,1.26,8.73,1.49
117559,-8.45,-4.94,20.57,1.04,8.73,1.46
117595,-7.67,-1.60,17.95,0.82,8.73,1.24
117629,-0.62,2.01,16.07,0.78,8.73,0.97
117664,1.32,5.55,14.25,0.93,8.73,0.69
117699,1.92,5.30,13.42,1.17,8.73,0.81
117734,5.05,2.35,13.66,1.30,8.73,1.04
117769,6.90,-0.43,13.58,1.31,8.73,1.33
117804,8.81,-3.92,14.60,1.24,8.73,1.56
117839,10.92,-5.93,18.95,1.10,8.73,1.68
117875,12.28,-5.13,23.22,1.04,8.73,1.72
117914,11.94,-5.90,27.29,1.12,8.73,1.84
117949,10.49,-6.90,29.14,1.07,8.73,1.94
117984,7.64,-6.16,30.52,1.00,8.73,1.96
118018,3.96,-6.03,30.96,0.90,8.73,1.97
118053,1.57,-5.04,31.57,0.85,8.73,1.93
118088,-1.13,-5.64,32.69,0.90,8.73,1.85
118123,-3.62,-4.83,30.48,1.01,8.73,1.77
118158,-5.60,-5.60,27.96,1.13,8.73,1.76
118193,-6.45,-5.09,24.78,1.18,8.73,1.83
118228,-5.08,-5.58,20.43,1.18,8.73,1.91
118263,-6.00,-5.60,17.60,1.13,8.73,1.99
118297,-4.89,-6.00,15.03,1.06,8.73,2.04
118332,-2.94,-7.36,13.26,0.94,8.73,2.05
118367,0.24,-5.33,12.95,0.81,8.73,2.11
118402,3.95,-3.44,13.89,0.72,8.73,2.05
118437,7.44,-4.70,15.01,0.64,8.73,2.01
118472,9.96,-4.55,16.69,0.52,8.73,1.95
118507,11.19,-5.88,19.19,0.50,8.73,1.85
118542,12.39,-4.23,22.68,0.50,8.73,1.75
118577,12.20,-3.79,25.67,0.57,8.73,1.67
118612,11.00,-4.84,28.20,0.65,8.73,1.68
118647,8.56,-7.10,30.07,0.67,8.73,1.68
118681,5.84,-6.59,31.54,0.67,8.73,1.68
118716,2.80,-6.40,31.85,0.65,8.73,1.71
118751,-0.13,-6.14,31.49,0.58,8.73,1.78
118786,-2.56,-5.05,30.51,0.43,8.73,1.80
118822,-4.36,-2.67,29.08,0.33,8.73,1.71
118856,-6.83,-2.79,27.03,0.30,8.73,1.60
118890,-7.61,-1.19,24.18,0.32,8.73,1.48
118925,-6.87,-0.36,20.72,0.43,8.73,1.38
118960,-5.69,1.24,18.00,0.56,8.73,1.30
118995,-3.95,0.88,15.80,0.75,8.73,1.34
119030,-1.35,0.79,14.21,0.89,8.73,1.30
119065,2.47,0.32,13.75,1.03,8.73,1.21
119100,6.90,0.97,14.48,1.21,8.73,1.14
119135,8.51,0.87,15.06,1.36,8.73,1.26
119170,9.79,-1.64,17.02,1.44,8.73,1.40
119205,9.96,-3.83,20.01,1.37,8.73,1.57
119240,10.95,-7.01,23.15,1.21,8.73,1.65
119274,10.82,-7.94,27.12,1.10,8.73,1.67
119309,10.30,-6.19,29.86,1.00,8.73,1.61
119343,8.82,-5.89,31.83,1.01,8.73,1.53
119378,6.18,-5.57,32.33,1.01,8.73,1.50
119413,2.79,-5.91,32.04,1.10,8.73,1.52
119448,0.15,-4.87,31.16,1.21,8.73,1.47
119483,-2.80,-5.69,29.12,1.29,8.73,1.51
119518,-5.59,-5.37,27.53,1.32,8.73,1.61
119553,-6.28,-5.78,24.62,1.33,8.73,1.73
119587,-6.71,-5.97,21.53,1.21,8.73,1.78
119621,-7.22,-6.03,18.62,1.10,8.73,1.80
119656,-4.42,-6.00,15.55,1.04,8.73,1.77
119691,-1.73,-3.51,13.46,0.93,8.73,1.61
119726,2.35,-1.01,13.13,0.97,8.73,1.56
119761,6.08,0.09,13.96,1.02,8.73,1.55
119796,8.55,-1.64,14.37,1.08,8.73,1.58
119831,10.18,-3.05,15.84,1.08,8.73,1.65
119867,10.63,-3.31,18.69,1.10,8.73,1.70
119901,11.53,-4.96,20.72,1.06,8.73,1.75
119941,12.60,-4.40,24.60,1.07,8.73,1.81
119976,10.64,-5.47,27.06,1.11,8.73,1.94
120011,8.16,-6.96,28.84,1.04,8.73,2.01
120045,6.18,-7.00,30.77,0.92,8.73,2.02
120080,2.58,-7.80,31.07,0.79,8.73,1.98
120115,-0.73,-7.09,32.18,0.70,8.73,1.92
120149,-3.12,-4.74,31.40,0.69,8.73,1.81
120184,-4.84,-4.48,28.84,0.70,8.73,1.74
120219,-6.79,-3.67,26.40,0.68,8.73,1.70
120254,-6.66,-3.54,22.38,0.55,8.73,1.62
120289,-5.66,-1.95,19.40,0.41,8.73,1.42
120324,-6.01,1.34,17.28,0.39,8.73,1.19
120359,-4.81,0.84,14.43,0.56,8.73,1.09
120394,-1.66,-0.40,12.78,0.71,8.73,1.13
120429,0.69,-1.67,11.82,0.80,8.73,1.26
120463,4.56,-3.42,11.68,0.79,8.73,1.43
120498,8.72,-3.89,13.49,0.73,8.73,1.51
120533,11.44,-4.75,15.82,0.67,8.73,1.53
120568,12.39,-6.00,18.20,0.57,8.73,1.49
120603,13.15,-5.16,20.97,0.47,8.73,1.39
120638,12.62,-5.20,23.88,0.54,8.73,1.30
120673,11.25,-5.43,27.25,0.63,8.73,1.28
120708,9.23,-6.30,29.39,0.76,8.73,1.28
120743,5.78,-7.36,30.16,0.84,8.73,1.39
120777,3.48,-6.95,30.93,0.87,8.73,1.57
120812,0.51,-5.52,31.31,0.81,8.73,1.62
120848,-2.76,-6.11,30.13,0.74,8.73,1.65
120882,-4.60,-4.86,28.24,0.65,8.73,1.68
120917,-6.23,-4.10,25.56,0.61,8.73,1.64
120952,-5.96,-3.92,21.46,0.58,8.73,1.56
120987,-6.30,-2.83,18.35,0.62,8.73,1.47
121022,-5.43,-2.53,15.54,0.68,8.73,1.44
121056,-3.32,-2.05,13.54,0.75,8.73,1.41
121092,-0.52,-1.33,12.40,0.80,8.73,1.41
121126,1.92,-1.78,11.71,0.84,8.73,1.44
121160,4.77,-2.48,11.84,0.87,8.73,1.50
121195,7.30,-3.52,13.17,0.89,8.73,1.56
121230,9.88,-3.73,15.67,0.90,8.73,1.60
121265,11.51,-3.07,18.68,0.94,8.73,1.64
121300,12.55,-3.42,21.85,1.09,8.73,1.70
121335,11.97,-5.12,25.25,1.24,8.73,1.90
121370,9.86,-6.49,27.73,1.21,8.73,2.11
121405,7.29,-8.84,29.61,1.12,8.73,2.31
121440,3.62,-7.66,30.88,0.95,8.73,2.38
121475,1.21,-7.42,31.48,0.76,8.73,2.36
121510,-0.90,-5.96,30.87,0.64,8.73,2.27
121545,-3.52,-5.23,29.37,0.60,8.73,2.09
121580,-4.98,-4.59,27.04,0.68,8.73,1.97
121615,-5.93,-4.24,24.49,0.73,8.73,1.91
121650,-6.66,-3.61,21.45,0.82,8.73,1.95
121684,-6.58,-4.47,18.18,0.90,8.73,2.05
121719,-2.85,-6.53,15.00,0.92,8.73,2.22
121754,-1.55,-6.87,11.80,0.83,8.73,2.28
121789,-0.06,-7.14,10.00,0.64,8.68,2.30
121824,3.30,-7.85,11.00,0.47,8.72,2.25
121859,5.86,-6.08,12.01,0.42,8.73,2.03
121894,8.31,-4.47,13.76,0.45,8.73,1.83
121929,10.00,-3.61,17.14,0.52,8.73,1.71
121969,12.02,-3.31,21.65,0.67,8.73,1.57
122004,12.20,-3.45,23.86,0.78,8.73,1.54
122038,11.85,-4.46,26.90,0.82,8.73,1.54
122073,10.30,-3.99,29.98,0.82,8.73,1.45
122108,7.78,-3.57,32.43,0.88,8.73,1.35
122143,3.79,-3.42,33.01,1.02,8.73,1.21
122178,0.04,-4.82,31.34,1.22,8.73,1.18
122213,-2.92,-4.71,30.23,1.34,8.73,1.24
122247,-5.78,-5.40,29.01,1.38,8.73,1.39
122282,-6.78,-5.03,26.26,1.31,8.73,1.57
122317,-7.29,-4.54,23.44,1.19,8.73,1.70
122352,-7.24,-4.30,20.21,1.10,8.73,1.75
122386,-6.13,-3.84,17.31,1.03,8.73,1.79
122421,-3.41,-4.37,14.39,0.96,8.73,1.79
122456,0.38,-2.05,12.65,0.88,8.73,1.69
122491,2.05,0.44,12.05,0.88,8.73,1.55
122526,5.55,1.08,12.35,0.99,8.73,1.46
122561,7.51,-0.56,13.11,1.03,8.73,1.49
122596,9.67,-2.59,14.99,1.06,8.73,1.55
122631,11.94,-5.01,18.43,0.91,8.73,1.59
122666,13.01,-6.23,21.34,0.70,8.73,1.53
122701,12.69,-4.92,24.43,0.57,8.73,1.39
122736,11.78,-3.69,27.35,0.59,8.73,1.22
122770,9.57,-3.03,29.96,0.66,8.73,1.05
122805,6.50,-2.64,31.66,0.80,8.73,0.87
122840,3.43,-3.71,31.91,1.11,8.73,0.75
122875,0.79,-2.40,32.24,1.52,8.73,0.70
122910,-2.84,-4.61,31.67,1.80,8.73,0.89
122945,-6.17,-4.33,29.38,1.93,8.73,1.19
122980,-7.63,-5.88,25.78,1.88,8.73,1.49
123015,-7.50,-6.20,23.04,1.60,8.73,1.70
123050,-6.57,-2.48,20.24,1.40,8.73,1.78
123085,-4.59,-2.03,17.67,1.36,8.73,1.87
123120,-2.74,-3.90,14.68,1.29,8.73,2.03
123155,1.28,-5.16,13.45,1.17,8.73,2.19
123190,3.08,-5.55,12.60,1.00,8.73,2.24
123224,5.68,-4.47,13.38,0.90,8.73,2.16
123259,9.52,-2.27,16.16,0.81,8.73,2.16
123294,10.82,-4.26,18.89,0.80,8.73,2.09
123329,13.11,-4.11,21.60,0.75,8.73,2.02
123363,14.00,-4.75,23.71,0.70,8.73,1.99
123398,12.44,-4.93,26.58,0.74,8.73,2.03
123433,10.79,-4.58,29.27,0.73,8.73,2.08
123468,8.23,-4.45,31.40,0.68,8.73,2.23
123503,4.32,-5.79,31.04,0.59,8.73,2.28
123538,0.78,-4.14,31.10,0.38,8.73,2.16
123572,-2.17,-4.61,30.14,0.25,8.73,1.99
123606,-3.51,-3.27,27.83,0.18,8.73,1.85
123641,-5.61,-0.51,27.02,0.24,8.73,1.66
123676,-6.32,-1.98,23.21,0.25,8.73,1.52
123711,-7.62,-1.62,20.63,0.33,8.73,1.39
123746,-8.22,-1.44,17.42,0.69,8.73,1.53
123781,-5.04,-4.17,14.51,0.93,8.73,1.84
123816,-1.40,-5.34,12.56,0.90,8.73,1.88
123851,1.54,-2.38,12.04,0.86,8.73,1.75
123885,4.78,-1.34,11.82,0.91,8.73,1.56
123920,7.69,-0.99,13.23,0.99,8.73,1.47
123955,9.61,-1.32,14.30,1.08,8.73,1.45
123994,11.16,-1.70,16.44,1.29,8.73,1.49
124029,11.53,-3.96,19.94,1.27,8.73,1.58
124064,11.55,-5.52,23.13,1.05,8.73,1.56
124099,10.50,-6.74,26.19,0.93,8.73,1.48
124133,9.82,-6.22,27.92,0.83,8.73,1.28
124168,7.10,-6.69,29.87,0.86,8.73,1.01
124203,4.40,-4.60,29.85,0.96,8.73,0.75
124238,2.02,-5.13,30.26,1.21,8.69,0.78
124273,-1.11,-5.69,31.06,1.29,8.73,1.06
124308,-3.72,-5.08,29.05,1.16,8.73,1.33
124343,-5.05,-4.36,26.02,0.98,8.73,1.46
124378,-5.24,-3.68,21.95,0.75,8.73,1.44
124414,-5.94,-1.30,19.72,0.51,8.73,1.29
124448,-7.27,0.10,17.70,0.50,8.73,1.14
124483,-4.06,0.77,15.65,0.66,8.73,1.10
124518,-1.14,0.12,13.89,0.80,8.73,1.08
124552,1.06,-0.72,12.07,0.93,8.73,1.17
124587,4.86,-3.26,11.55,0.94,8.73,1.35
124622,7.45,-5.30,11.89,0.85,8.73,1.53
124657,9.74,-5.15,13.58,0.74,8.73,1.64
124692,11.08,-5.10,15.84,0.64,8.73,1.66
124727,11.33,-4.22,18.18,0.63,8.70,1.61
124762,12.32,-3.50,20.62,0.70,8.70,1.60
124797,12.02,-4.37,24.32,0.86,8.73,1.71
124832,10.31,-4.57,27.19,0.92,8.71,1.90
124867,7.35,-5.59,29.00,0.89,8.64,2.03
124902,5.00,-6.45,31.33,0.76,8.62,2.12
124937,1.84,-5.98,30.73,0.58,8.68,2.20
124972,-1.02,-5.83,29.77,0.45,8.73,2.11
125006,-4.06,-4.42,28.57,0.40,8.73,1.95
125041,-6.09,-3.77,26.92,0.49,8.73,1.80
125076,-7.40,-4.14,24.19,0.58,8.73,1.73
125111,-7.36,-3.56,21.15,0.65,8.73,1.67
125145,-7.39,-1.34,18.70,0.67,8.73,1.65
125180,-4.73,-0.89,15.79,0.73,8.73,1.64
125215,-2.94,-1.23,13.30,0.78,8.73,1.58
125250,0.08,-1.94,12.45,0.81,8.73,1.59
125285,4.02,-1.72,12.73,0.82,8.73,1.56
125320,6.66,-2.28,12.85,0.90,8.73,1.48
125355,9.36,-3.28,13.94,0.92,8.73,1.50
125390,10.40,-3.96,15.49,0.93,8.73,1.54
125425,10.82,-4.46,18.03,0.91,8.73,1.58
125460,11.94,-5.08,21.23,0.87,8.73,1.58
125496,11.74,-5.03,25.01,0.87,8.73,1.59
125530,11.01,-5.54,27.90,0.90,8.73,1.59
125565,8.66,-5.37,30.21,0.93,8.73,1.59
125600,5.91,-5.39,31.51,0.90,8.73,1.59
125635,2.51,-5.93,31.81,0.94,8.73,1.63
125670,-0.43,-5.83,31.61,0.94,8.73,1.67
125705,-3.36,-6.30,29.45,0.89,8.73,1.70
125740,-5.21,-5.95,26.89,0.79,8.73,1.72
125774,-6.26,-4.18,24.38,0.74,8.73,1.68
125809,-6.27,-3.13,20.84,0.72,8.73,1.61
125844,-6.51,-3.04,18.12,0.79,8.73,1.60
125878,-4.54,-2.67,15.58,0.84,8.73,1.61
125914,-2.45,-3.11,13.27,0.85,8.73,1.54
125948,1.04,-2.31,12.08,0.88,8.73,1.48
125982,5.59,-1.41,13.10,0.94,8.73,1.41
126021,8.00,-0.66,13.49,1.06,8.73,1.31
126057,9.74,-0.41,14.78,1.20,8.73,1.35
126091,11.16,-1.87,17.57,1.27,8.73,1.45
126126,11.68,-3.26,19.94,1.24,8.73,1.57
126161,11.75,-4.64,22.60,1.18,8.73,1.64
126196,10.57,-5.65,26.01,1.19,8.73,1.78
126231,8.84,-5.23,28.44,1.14,8.73,1.88
126266,6.81,-5.22,30.82,1.08,8.73,1.98
126301,4.26,-6.61,32.75,1.04,8.73,1.99
126336,1.28,-6.34,32.97,1.03,8.73,1.92
126371,-1.65,-6.00,31.75,1.07,8.73,1.80
126406,-3.96,-5.98,28.42,1.20,8.73,1.77
126441,-4.28,-4.07,25.01,1.39,8.73,1.82
126476,-5.42,-5.57,22.03,1.53,8.73,1.97
126511,-6.61,-6.58,19.16,1.56,8.71,2.17
126546,-6.34,-5.77,16.29,1.44,8.67,2.31
126581,-5.27,-4.58,13.63,1.19,8.65,2.27
126616,-2.30,-4.62,11.58,1.02,8.73,2.10
126651,1.42,-3.37,11.71,0.91,8.73,1.87
126686,5.22,-3.46,11.77,0.91,8.73,1.70
126721,7.45,-4.05,11.95,0.92,8.73,1.64
126756,9.99,-4.96,14.12,0.88,8.73,1.67
126791,10.57,-6.20,16.82,0.74,8.73,1.66
126827,11.27,-5.76,19.48,0.60,8.73,1.59
126862,11.59,-4.68,22.81,0.51,8.73,1.47
126896,10.72,-3.91,26.23,0.50,8.73,1.36
126931,9.23,-3.01,29.18,0.63,8.73,1.30
126966,6.50,-3.51,31.19,0.75,8.73,1.33
127001,3.17,-5.22,31.83,0.85,8.73,1.36
127036,0.08,-5.10,31.86,0.90,8.73,1.40
127071,-3.03,-5.09,29.86,0.89,8.73,1.41
127106,-4.79,-3.30,27.57,0.98,8.73,1.42
127141,-6.06,-3.64,24.33,1.04,8.71,1.46
127176,-7.21,-2.63,22.05,1.00,8.68,1.49
127210,-6.96,-2.07,19.30,0.92,8.67,1.48
127245,-5.59,-0.30,17.20,0.86,8.69,1.45
127279,-4.76,-0.60,13.97,0.86,8.69,1.41
127315,-1.45,0.23,11.86,0.89,8.71,1.36
127349,1.92,0.06,12.01,0.96,8.69,1.38
127384,4.61,-0.30,12.18,1.05,8.66,1.34
127419,7.12,-0.86,11.91,1.15,8.62,1.35
127454,9.42,-1.88,13.35,1.28,8.64,1.37
127489,10.63,-3.31,15.83,1.35,8.64,1.49
127523,11.76,-4.19,18.24,1.23,8.64,1.64
127558,12.18,-5.17,20.92,1.10,8.67,1.67
127593,11.66,-6.01,23.87,0.97,8.73,1.65
127627,9.81,-6.05,26.52,0.87,8.73,1.52
127661,6.56,-5.88,28.50,0.84,8.73,1.33
127696,4.19,-3.93,31.01,0.87,8.73,1.23
127731,1.85,-3.15,31.19,0.99,8.73,1.23
127765,-0.57,-3.82,30.02,1.08,8.72,1.31
127800,-3.39,-4.11,29.17,1.12,8.73,1.41
127835,-4.98,-3.77,26.89,1.12,8.73,1.50
127870,-6.41,-4.06,23.91,1.16,8.73,1.56
127905,-7.04,-4.03,20.74,1.22,8.73,1.64
127940,-6.21,-5.03,17.46,1.22,8.70,1.75
127975,-4.70,-6.30,14.60,1.17,8.72,1.83
128010,-4.93,-6.28,12.30,1.09,8.73,1.84
128049,-0.52,0.57,12.33,0.99,8.73,1.74
128084,2.70,1.33,13.07,1.02,8.73,1.60
128118,5.25,0.48,12.48,1.16,8.73,1.50
128153,8.35,0.49,13.91,1.24,8.73,1.57
128188,10.47,-1.88,16.39,1.29,8.73,1.68
128223,11.76,-5.56,18.91,1.22,8.73,1.76
128258,11.98,-6.63,21.27,1.04,8.73,1.79
128293,11.03,-6.87,24.20,0.96,8.73,1.81
128329,9.16,-6.33,26.82,0.87,8.73,1.79
128364,6.72,-6.62,28.78,0.80,8.73,1.75
128398,3.59,-6.17,29.85,0.72,8.71,1.71
128433,1.47,-6.42,29.75,0.70,8.69,1.65
128467,-0.79,-5.78,29.85,0.73,8.67,1.64
128501,-3.35,-5.16,28.98,0.72,8.69,1.60
128536,-5.36,-4.63,27.09,0.72,8.73,1.58
128571,-6.47,-4.34,24.21,0.68,8.73,1.54
128605,-6.89,-2.76,21.74,0.58,8.73,1.46
128640,-7.10,-1.73,19.33,0.62,8.73,1.34
128675,-6.63,0.21,17.31,0.70,8.73,1.26
128710,-4.45,-0.02,14.54,0.86,8.73,1.16
128745,-1.08,0.85,12.74,1.01,8.73,1.07
128780,1.78,1.81,12.14,1.22,8.73,1.03
128815,5.19,1.63,12.13,1.51,8.73,0.99
128850,9.47,1.58,14.12,1.83,8.73,1.08
128885,11.43,-0.04,17.27,2.16,8.73,1.28
128921,11.37,-5.56,18.38,2.21,8.73,1.63
128955,11.76,-9.00,20.82,1.93,8.73,1.92
128990,11.00,-10.09,24.81,1.54,8.73,2.03
129025,9.74,-8.53,28.43,1.25,8.73,2.01
129060,7.10,-9.03,30.51,1.10,8.73,1.97
129095,5.29,-10.05,31.18,0.94,8.73,2.02
129130,1.88,-8.11,31.82,0.80,8.73,2.07
129165,-1.64,-7.45,31.72,0.68,8.73,2.09
129200,-4.66,-7.37,29.97,0.45,8.73,2.05
129235,-6.89,-6.34,28.18,0.24,8.73,1.94
129270,-6.95,-4.23,24.90,0.15,8.73,1.78
129305,-7.23,-2.68,22.82,0.27,8.73,1.59
129340,-6.14,-4.25,19.02,0.43,8.73,1.50
129375,-2.93,-2.43,16.27,0.51,8.73,1.42
129409,-0.50,-1.09,13.97,0.62,8.73,1.34
129444,1.83,-1.82,13.22,0.74,8.73,1.41
129479,5.15,-3.01,13.57,0.79,8.73,1.52
129514,8.30,-3.78,14.63,0.79,8.73,1.58
129550,10.25,-4.36,16.66,0.84,8.73,1.55
129584,11.26,-4.57,19.42,0.93,8.73,1.55
129618,11.63,-4.39,22.42,1.11,8.73,1.62
129653,11.44,-4.09,24.72,1.25,8.73,1.82
129688,9.81,-6.59,26.85,1.32,8.70,2.10
129723,6.93,-9.52,27.97,1.20,8.66,2.30
129758,5.01,-8.24,30.11,1.02,8.73,2.44
129793,2.17,-10.89,30.91,0.74,8.73,2.35
129828,-0.70,-8.06,31.90,0.60,8.73,2.16
129863,-3.86,-7.76,31.05,0.57,8.73,1.96
129898,-5.45,-6.41,28.57,0.45,8.73,1.84
129933,-6.85,-4.82,26.02,0.28,8.73,1.74
129967,-6.81,-4.00,22.74,0.20,8.73,1.53
130002,-6.81,-0.36,20.47,0.14,8.73,1.24
130036,-5.85,4.30,18.27,0.25,8.73,0.98
130076,-2.14,0.81,14.42,0.54,8.73,0.76
130111,0.55,3.42,13.93,0.85,8.73,0.70
130146,3.24,1.86,13.43,1.14,8.73,0.87
130181,5.74,-1.74,14.01,1.34,8.73,1.10
130216,9.71,-2.47,16.38,1.46,8.73,1.29
130251,11.71,0.25,19.59,1.73,8.73,1.44
130287,12.57,-2.15,23.10,2.17,8.73,1.77
130321,12.16,-7.15,24.17,2.17,8.73,2.19
130356,11.32,-11.26,28.40,2.00,8.73,2.54
130391,8.15,-13.51,31.51,1.58,8.73,2.72
130426,4.82,-10.97,34.60,1.25,8.73,2.61
130461,1.95,-10.87,34.98,0.94,8.73,2.51
130496,-1.27,-9.08,34.97,0.87,8.73,2.36
130531,-4.26,-9.98,32.49,0.60,8.73,2.27
130566,-6.20,-6.23,29.45,0.40,8.73,2.13
130601,-6.08,-5.84,25.06,0.18,8.73,1.93
130636,-6.44,-2.17,22.68,0.09,8.73,1.57
130671,-6.62,-1.28,19.51,0.16,8.73,1.28
130706,-3.35,0.51,16.74,0.27,8.73,0.99
130741,-1.30,2.30,15.29,0.57,8.73,0.78
130776,1.36,4.42,16.26,0.82,8.73,0.75
130811,6.34,2.23,17.14,1.17,8.73,0.78
130846,11.39,-2.15,18.23,1.44,8.73,0.92
130881,13.14,-3.03,21.55,1.51,8.73,1.11
130916,14.34,-4.19,24.02,1.54,8.73,1.29
130951,12.84,-7.27,25.44,1.50,8.73,1.44
130986,11.02,-6.49,27.95,1.41,8.73,1.54
131021,7.54,-6.71,30.71,1.36,8.73,1.58
131056,5.07,-6.83,31.80,1.34,8.73,1.60
131091,1.93,-8.56,31.17,1.28,8.73,1.65
131126,-0.32,-6.88,30.97,1.38,8.73,1.65
131161,-3.31,-7.07,29.96,1.40,8.73,1.72
131196,-5.42,-6.73,27.50,1.35,8.73,1.83
131231,-6.49,-8.12,23.74,1.19,8.73,1.94
131265,-6.46,-6.55,19.67,0.96,8.71,1.95
131300,-5.50,-4.75,15.99,0.66,8.59,1.81
131335,-6.22,-2.25,14.23,0.53,8.51,1.65
131370,-6.28,-1.79,12.28,0.56,8.51,1.63
131405,-2.97,-3.73,11.03,0.58,8.54,1.75
131440,0.89,-8.32,9.65,0.48,8.51,2.06
131475,4.91,-10.43,8.87,0.20,8.41,2.28
131510,7.36,-7.66,9.95,-0.03,8.41,2.21
131545,9.61,-4.39,13.02,-0.08,8.50,1.97
131581,10.83,-3.11,16.14,0.10,8.60,1.71
131615,11.79,-0.72,19.45,0.39,8.68,1.61
131650,11.87,-1.51,22.20,0.66,8.71,1.63
131685,11.45,-3.45,25.04,0.84,8.72,1.76
131720,9.37,-4.98,27.45,0.89,8.68,1.87
131755,6.74,-6.11,28.83,0.88,8.55,1.93
131790,3.84,-6.54,29.64,0.81,8.48,1.90
131825,0.83,-6.38,30.06,0.74,8.47,1.85
131860,-1.52,-5.04,29.06,0.75,8.53,1.71
131895,-4.08,-5.58,27.22,0.80,8.55,1.64
131929,-6.32,-3.80,25.79,0.88,8.56,1.63
131964,-6.80,-3.66,22.61,0.94,8.56,1.64
131999,-7.34,-3.32,19.96,1.00,8.54,1.67
132034,-6.84,-1.96,17.15,0.97,8.56,1.69
132069,-5.20,-1.94,14.59,0.92,8.58,1.65
132110,-3.30,-0.16,12.85,0.90,8.71,1.47
132144,-0.07,0.57,12.42,0.93,8.73,1.38
132179,3.92,1.06,12.60,1.05,8.73,1.30
132214,6.09,-0.24,12.57,1.16,8.73,1.30
132249,8.40,-1.98,13.49,1.24,8.73,1.40
132284,10.24,-4.57,15.75,1.17,8.73,1.54
132320,12.39,-4.92,18.69,1.08,8.73,1.61
132354,12.49,-5.80,21.73,0.97,8.73,1.62
132389,11.94,-5.89,24.91,0.83,8.73,1.56
132424,10.55,-4.93,27.41,0.83,8.73,1.53
132459,8.14,-4.65,29.95,0.88,8.73,1.55
132494,5.26,-4.87,30.74,0.90,8.73,1.61
132529,1.85,-4.56,30.58,0.91,8.73,1.66
132564,-1.10,-5.39,29.82,0.89,8.73,1.67
132599,-3.97,-4.27,28.43,0.90,8.73,1.64
132633,-6.27,-3.71,27.01,1.04,8.73,1.61
132668,-7.20,-4.20,24.14,1.12,8.73,1.67
132703,-7.17,-4.09,20.49,1.14,8.73,1.74
132738,-7.71,-3.24,17.71,1.12,8.73,1.84
132773,-5.93,-1.76,15.82,1.07,8.73,1.88
132808,-2.72,-0.48,14.67,0.98,8.73,1.81
132842,-0.45,0.38,13.54,0.92,8.73,1.72
132877,2.55,0.99,13.32,0.95,8.73,1.64
132911,5.20,-0.08,13.75,0.99,8.73,1.61
132946,8.83,-1.28,15.22,1.04,8.73,1.64
132980,10.93,-2.76,17.14,1.10,8.73,1.64
133015,12.29,-4.25,19.49,1.03,8.73,1.67
133049,12.75,-6.22,22.01,0.92,8.73,1.68
133084,11.88,-6.27,24.64,0.84,8.73,1.66
133119,9.92,-5.86,26.89,0.77,8.72,1.59
133154,7.35,-5.46,28.85,0.80,8.67,1.62
133189,4.35,-4.91,30.28,0.80,8.66,1.78
133224,2.00,-6.51,29.62,0.70,8.69,1.97
133259,-0.40,-5.50,29.65,0.49,8.66,2.08
133294,-3.38,-2.88,29.22,0.39,8.71,1.95
133329,-6.10,-2.29,27.82,0.49,8.73,1.79
133364,-6.66,-2.94,24.96,0.64,8.73,1.71
133399,-6.01,-3.56,21.26,0.76,8.73,1.71
133434,-7.02,-3.59,18.42,0.85,8.73,1.73
133469,-5.72,-4.75,15.27,0.85,8.73,1.76
133504,-3.80,-4.74,13.16,0.79,8.73,1.72
133539,0.05,-2.48,12.02,0.79,8.73,1.67
133574,2.59,-1.17,11.85,0.81,8.73,1.53
133608,4.91,-1.19,11.53,0.90,8.73,1.45
133643,7.23,-2.03,13.13,0.96,8.73,1.46
133678,10.02,-2.93,15.45,0.96,8.73,1.48
133713,11.77,-3.45,18.56,0.94,8.73,1.48
133748,12.70,-3.35,21.91,0.93,8.73,1.46
133783,11.90,-5.05,24.54,0.94,8.73,1.47
133818,9.63,-5.90,26.77,0.94,8.72,1.46
133854,7.68,-5.80,28.28,0.96,8.65,1.43
133888,4.82,-6.66,29.36,0.97,8.61,1.45
133923,2.33,-6.13,30.73,1.05,8.73,1.39
133958,-0.21,-5.22,30.09,1.19,8.73,1.36
133992,-3.21,-3.86,28.91,1.43,8.73,1.29
134027,-5.34,-4.97,26.77,1.63,8.72,1.41
134062,-7.25,-5.71,23.87,1.74,8.69,1.62
134097,-7.42,-6.40,20.65,1.70,8.66,1.84
134137,-6.48,-6.66,17.46,1.48,8.67,2.00
134172,-4.56,-6.28,14.65,1.29,8.69,2.02
134206,-4.30,-5.34,12.37,1.12,8.70,1.92
134241,-0.62,-3.38,11.52,1.02,8.71,1.76
134276,2.45,-2.17,11.88,1.01,8.65,1.63
134311,6.38,-2.53,11.53,1.02,8.55,1.57
134346,8.47,-3.44,11.12,1.02,8.49,1.62
134381,10.15,-3.38,13.45,1.02,8.48,1.65
134416,11.75,-4.30,16.52,0.98,8.46,1.67
134451,13.35,-4.24,19.29,0.93,8.43,1.66
134486,12.54,-4.27,22.12,0.91,8.40,1.68
134521,10.51,-5.29,24.34,0.86,8.38,1.66
134556,8.28,-5.18,26.76,0.80,8.41,1.60
134591,6.16,-5.44,28.49,0.76,8.45,1.55
134626,3.62,-5.76,29.73,0.78,8.55,1.47
134661,0.68,-4.45,30.72,0.82,8.58,1.42
134696,-2.20,-4.36,29.19,0.87,8.60,1.36
134730,-4.31,-3.70,27.75,0.93,8.58,1.36
134764,-6.13,-3.82,25.29,0.90,8.55,1.42
134799,-7.16,-3.73,22.06,0.82,8.54,1.42
134834,-7.06,-2.30,18.66,0.75,8.51,1.35
134869,-5.87,-0.97,15.61,0.69,8.49,1.27
134904,-4.16,1.29,13.89,0.75,8.48,1.18
134939,-2.68,3.11,12.02,0.84,8.47,1.07
134974,-0.16,1.51,10.41,0.98,8.41,1.18
135009,2.40,-0.13,9.79,1.02,8.38,1.36
135044,6.52,-1.43,10.03,1.02,8.33,1.48
135079,8.34,-3.11,10.48,1.03,8.28,1.55
135114,9.60,-4.50,11.92,1.00,8.28,1.61
135149,11.07,-4.67,15.74,0.98,8.22,1.64
135184,11.97,-4.42,18.60,0.94,8.15,1.66
135219,11.47,-3.45,20.83,1.02,8.12,1.79
135254,11.03,-5.39,23.35,1.03,8.13,1.97
135288,9.58,-5.56,25.25,0.96,8.17,2.12
135323,6.18,-6.87,27.54,0.82,8.22,2.30
135358,2.52,-6.98,28.40,0.64,8.27,2.36
135393,0.16,-6.80,29.25,0.42,8.32,2.28
135428,-2.36,-6.26,28.56,0.31,8.39,2.08
135463,-4.13,-5.05,25.76,0.24,8.36,1.90
135498,-5.69,-4.37,23.91,0.26,8.29,1.68
135533,-6.93,-2.03,21.75,0.34,8.32,1.54
135567,-6.86,-2.86,18.06,0.39,8.35,1.42
135602,-6.20,-1.48,15.95,0.43,8.35,1.30
135637,-5.07,-0.51,13.32,0.51,8.37,1.22
135672,-3.28,0.33,10.97,0.61,8.33,1.11
135707,-0.66,1.42,9.65,0.77,8.33,0.89
135742,0.98,1.75,9.21,0.98,8.31,0.75
135777,3.96,2.94,9.30,1.30,8.33,0.68
135812,5.81,0.28,9.83,1.62,8.37,0.77
135847,8.63,-2.45,12.38,1.74,8.43,1.02
135882,11.13,-3.83,15.72,1.78,8.49,1.31
135916,11.80,-5.41,19.14,1.68,8.53,1.56
135951,11.04,-6.54,22.05,1.49,8.53,1.72
135986,10.41,-7.59,24.95,1.37,8.58,1.82
136020,9.33,-7.27,27.83,1.20,8.64,1.82
136055,7.36,-6.99,29.14,1.06,8.64,1.81
136090,4.34,-7.13,29.95,0.97,8.66,1.75
136125,0.84,-7.63,30.46,0.93,8.63,1.83
136164,-3.17,-7.68,28.31,0.74,8.61,1.98
136199,-5.16,-6.47,25.84,0.46,8.56,1.96
136234,-6.23,-3.59,23.39,0.26,8.47,1.81
136269,-6.81,-3.54,20.10,0.19,8.42,1.63
136304,-7.54,-1.38,17.15,0.25,8.37,1.48
136339,-7.70,-1.79,15.24,0.42,8.40,1.45
136373,-4.46,-2.18,12.57,0.52,8.41,1.44
136408,-1.16,-2.40,10.71,0.61,8.39,1.42
136442,1.39,-2.52,9.85,0.64,8.38,1.53
136476,4.87,-2.69,10.16,0.63,8.37,1.57
136510,5.96,-4.42,9.67,0.60,8.33,1.59
136545,7.58,-4.15,10.70,0.65,8.34,1.56
136580,9.05,-3.47,13.75,0.74,8.37,1.53
136616,10.82,-2.09,16.52,0.89,8.32,1.55
136650,12.75,-4.37,18.13,1.14,8.26,1.65
136684,12.21,-4.84,21.64,1.29,8.23,1.87
136719,10.07,-6.98,24.67,1.25,8.21,2.09
136754,8.06,-8.66,26.53,1.11,8.17,2.29
136789,5.20,-9.03,27.40,0.93,8.15,2.35
136824,2.27,-8.58,28.16,0.69,8.21,2.32
136859,-0.48,-7.37,29.08,0.54,8.29,2.18
136894,-2.87,-6.40,28.37,0.46,8.40,2.01
136928,-4.79,-6.02,26.87,0.42,8.46,1.86
136963,-6.25,-5.14,23.71,0.46,8.45,1.69
136998,-7.20,-4.52,20.49,0.36,8.43,1.54
137033,-7.29,-2.72,17.47,0.37,8.42,1.37
137067,-6.06,-1.29,15.15,0.37,8.44,1.18
137101,-4.17,1.49,13.56,0.40,8.49,0.90
137136,-2.60,3.76,12.13,0.55,8.56,0.68
137171,0.29,5.46,11.09,0.83,8.60,0.53
137206,3.36,6.33,11.41,1.19,8.67,0.48
137241,5.88,3.95,11.95,1.52,8.71,0.65
137277,8.91,0.73,13.13,1.82,8.73,0.88
137311,10.90,-1.01,15.67,2.04,8.73,1.18
137346,12.84,-3.05,19.26,2.17,8.72,1.54
137381,12.79,-5.88,22.66,2.21,8.66,1.92
137416,11.51,-9.58,25.94,2.11,8.64,2.31
137451,8.98,-10.42,28.20,1.76,8.67,2.53
137486,6.40,-9.43,29.98,1.43,8.70,2.57
137521,3.63,-9.32,31.57,1.13,8.73,2.43
137556,0.44,-8.31,31.66,1.01,8.73,2.22
137591,-2.64,-6.09,29.69,1.06,8.73,2.00
137626,-4.49,-8.95,25.36,1.03,8.73,1.92
137660,-6.06,-8.40,22.43,0.88,8.58,1.90
137695,-6.04,-6.14,19.23,0.64,8.43,1.84
137730,-6.55,-5.16,16.35,0.42,8.32,1.65
137765,-6.76,-2.31,14.17,0.26,8.34,1.41
137800,-4.92,-0.86,12.17,0.27,8.38,1.18
137835,-2.26,-0.69,10.41,0.41,8.40,1.05
137870,0.27,-0.71,9.33,0.55,8.42,1.03
137906,3.69,-0.28,9.65,0.62,8.45,1.09
137940,5.66,-1.80,9.91,0.60,8.48,1.21
137975,8.68,-5.26,10.96,0.48,8.51,1.31
138010,11.02,-7.36,14.71,0.28,8.50,1.32
138045,11.17,-6.59,17.84,0.10,8.39,1.20
138080,11.49,-5.81,19.01,0.06,8.26,1.01
138115,12.03,-3.68,20.38,0.17,8.23,0.88
138150,9.44,-2.08,23.79,0.47,8.21,1.01
138190,8.70,-3.70,26.09,0.77,8.14,1.38
138225,4.60,-5.35,27.07,0.83,8.01,1.91
138260,2.14,-8.02,27.12,0.69,7.97,2.26
138295,0.20,-7.96,27.15,0.46,7.92,2.31
138330,-2.36,-6.25,27.27,0.29,7.97,2.20
138366,-5.56,-4.69,25.66,0.28,8.06,2.01
138400,-7.24,-2.50,23.98,0.43,8.12,1.82
138435,-6.21,-3.42,20.25,0.57,8.14,1.73
138470,-8.11,-2.81,18.38,0.75,8.10,1.72
138505,-8.35,-3.29,14.90,0.89,8.10,1.82
138540,-5.84,-4.25,12.47,0.91,8.12,1.96
138575,-3.39,-4.62,10.28,0.82,8.14,1.89
138610,-0.74,-3.49,8.42,0.73,8.15,1.72
138645,1.84,-1.32,8.02,0.75,8.15,1.50
138680,3.79,0.73,8.37,0.87,8.16,1.27
138715,6.71,-0.25,10.26,1.02,8.16,1.22
138750,8.81,-1.41,11.64,1.13,8.12,1.25
138785,11.85,-4.12,13.99,1.08,8.13,1.35
138819,12.04,-3.84,17.56,1.06,8.10,1.40
138854,11.89,-3.36,20.39,1.03,8.05,1.43
138888,12.35,-5.94,21.60,0.97,8.04,1.41
138922,9.71,-5.61,23.57,0.91,8.10,1.36
138956,6.58,-4.91,25.45,0.89,8.08,1.30
138990,5.91,-5.86,27.15,0.91,8.05,1.27
139024,2.31,-4.73,27.65,0.98,8.13,1.16
139059,-0.33,-4.09,27.10,1.13,8.12,1.10
139094,-2.29,-5.26,25.70,1.24,8.11,1.14
139129,-5.30,-5.87,24.99,1.20,8.12,1.33
139164,-6.85,-4.06,23.16,1.13,8.16,1.47
139199,-7.62,-4.59,21.01,1.00,8.19,1.54
139234,-8.82,-3.78,18.71,0.83,8.27,1.54
139269,-7.54,-3.01,15.39,0.76,8.33,1.53
139304,-4.66,-1.31,12.53,0.74,8.32,1.51
139339,-1.86,0.00,10.03,0.71,8.27,1.44
139374,1.19,0.07,9.44,0.73,8.18,1.49
139409,3.14,-1.47,8.71,0.73,8.12,1.56
139444,3.90,-3.09,8.23,0.75,8.12,1.53
139479,6.63,-1.71,9.86,0.79,8.18,1.51
139514,9.28,-0.94,11.88,0.87,8.22,1.49
139548,10.64,-3.50,15.19,0.92,8.26,1.49
139583,11.99,-4.01,18.16,0.93,8.23,1.52
139618,12.05,-3.46,20.98,0.95,8.19,1.57
139653,10.61,-4.85,22.81,0.96,8.14,1.61
139688,9.08,-5.01,24.88,0.90,8.15,1.58
139723,6.71,-5.49,27.53,0.90,8.18,1.52
139758,4.40,-5.45,28.47,0.92,8.23,1.37
139793,1.73,-4.17,28.92,1.01,8.29,1.32
139828,-1.10,-4.22,29.00,1.06,8.32,1.39
139863,-3.36,-5.11,27.30,0.97,8.36,1.56
139898,-5.48,-4.12,25.61,0.82,8.40,1.68
139933,-6.85,-2.80,22.45,0.78,8.43,1.66
139968,-7.25,-2.52,19.03,0.79,8.41,1.65
140003,-6.27,-2.68,16.00,0.84,8.39,1.69
140038,-6.22,-2.23,13.83,0.87,8.39,1.82
140073,-4.65,-2.30,12.11,0.84,8.39,1.92
140108,-0.97,-2.33,10.81,0.71,8.38,1.92
140143,0.49,-4.01,8.44,0.56,8.28,2.09
140178,3.85,-7.74,8.65,0.26,8.27,2.28
140218,6.72,-6.68,9.77,-0.08,8.34,2.25
140253,9.59,-4.04,12.73,-0.27,8.46,2.06
140287,10.40,-3.21,16.76,-0.23,8.61,1.80
140322,11.46,-3.14,20.01,-0.07,8.70,1.59
140357,11.59,-1.92,23.41,0.10,8.73,1.45
140391,9.76,-2.68,26.48,0.23,8.73,1.37
140426,8.05,-3.06,28.26,0.35,8.73,1.21
140461,5.66,-3.85,29.98,0.49,8.73,1.14
140496,2.79,-4.47,31.17,0.64,8.73,1.10
140531,-0.44,-3.78,31.27,0.79,8.73,1.05
140565,-1.81,-3.02,29.39,0.88,8.73,1.07
140600,-5.61,-2.97,27.17,0.93,8.73,1.15
140635,-7.23,-3.75,24.48,0.95,8.73,1.19
140670,-6.56,-2.12,21.35,0.80,8.73,1.17
140705,-6.95,0.34,18.64,0.66,8.68,1.03
140740,-5.98,3.20,16.45,0.61,8.66,0.81
140775,-4.01,5.05,14.15,0.68,8.67,0.61
140810,-1.99,5.49,12.84,0.90,8.69,0.49
140845,1.86,4.01,11.72,1.13,8.65,0.61
140880,5.42,1.54,11.75,1.36,8.66,0.77
140915,7.31,-0.02,12.05,1.47,8.62,1.02
140950,10.40,-2.26,13.54,1.53,8.61,1.25
140985,11.10,-3.34,14.69,1.47,8.56,1.49
141020,11.96,-3.76,17.07,1.40,8.58,1.68
141055,12.27,-4.19,20.55,1.38,8.64,1.85
141090,11.39,-5.53,24.12,1.41,8.65,2.11
141125,10.41,-6.42,26.99,1.36,8.59,2.40
141160,8.18,-9.49,29.02,1.20,8.53,2.66
141195,4.97,-9.73,30.57,0.95,8.52,2.72
141230,1.98,-7.83,31.51,0.67,8.62,2.59
141265,-0.48,-6.81,30.49,0.57,8.72,2.35
141300,-3.47,-6.08,29.70,0.61,8.73,2.12
141335,-5.41,-5.22,27.78,0.73,8.73,2.02
141370,-4.99,-5.07,23.18,0.87,8.73,2.00
141405,-4.90,-4.85,18.71,1.04,8.69,2.07
141439,-5.35,-5.55,15.98,1.14,8.54,2.26
141473,-5.37,-7.40,13.22,1.08,8.46,2.46
141508,-3.83,-6.79,11.44,0.86,8.46,2.53
141542,-0.88,-5.64,10.85,0.64,8.49,2.47
141577,2.02,-4.20,11.28,0.49,8.55,2.25
141612,4.71,-0.89,11.31,0.50,8.65,1.91
141647,7.32,0.05,12.91,0.69,8.73,1.66
141682,9.64,-0.92,15.58,0.84,8.73,1.58
141717,10.74,-2.82,18.14,0.92,8.73,1.58
141752,12.09,-4.09,21.60,0.95,8.73,1.57
141787,11.54,-4.78,25.30,0.96,8.73,1.58
141822,9.34,-6.47,27.85,0.91,8.73,1.49
141857,7.36,-7.21,29.34,0.90,8.73,1.29
141892,4.68,-5.34,30.77,0.92,8.73,1.16
141926,2.13,-5.74,30.74,1.07,8.73,1.09
141960,-0.32,-4.87,30.69,1.27,8.73,1.11
141995,-3.73,-6.23,29.33,1.30,8.73,1.30
142030,-5.64,-4.70,27.82,1.17,8.73,1.49
142065,-7.21,-5.42,24.80,0.96,8.73,1.60
142099,-7.60,-3.17,21.96,0.79,8.73,1.56
142134,-5.79,-1.68,18.73,0.74,8.73,1.47
142169,-4.17,-2.31,15.66,0.76,8.73,1.42
142203,-5.26,-1.60,13.76,0.83,8.73,1.39
142243,-0.10,1.95,13.86,0.86,8.73,1.44
142278,2.32,1.24,13.44,0.91,8.73,1.53
142313,5.24,-0.07,13.21,0.93,8.73,1.59
142348,8.38,-2.16,14.47,0.91,8.73,1.66
142383,10.95,-3.62,17.74,0.84,8.73,1.69
142418,12.60,-4.20,20.15,0.86,8.73,1.68
142453,12.31,-4.97,22.36,0.79,8.73,1.63
142488,11.13,-5.86,25.66,0.73,8.73,1.56
142523,10.10,-5.58,28.29,0.68,8.73,1.37
142559,7.16,-5.17,30.14,0.74,8.73,1.18
142593,4.49,-4.58,31.18,0.84,8.73,1.08
142628,1.12,-5.09,31.64,1.01,8.73,1.09
142663,-1.64,-6.12,30.59,1.03,8.73,1.27
142698,-3.91,-4.61,28.83,0.96,8.73,1.40
142733,-5.70,-4.97,26.45,0.88,8.73,1.47
142768,-6.67,-3.47,24.26,0.81,8.73,1.48
142803,-7.19,-2.96,21.36,0.74,8.73,1.42
142837,-6.94,-0.62,18.95,0.71,8.73,1.35
142872,-4.79,-2.36,15.80,0.83,8.73,1.37
142907,-1.37,-3.07,13.85,0.86,8.73,1.38
142942,1.86,-2.04,13.36,0.89,8.73,1.47
142977,5.23,-1.53,13.68,0.90,8.73,1.61
143013,7.78,-3.41,13.87,0.84,8.73,1.70
143047,10.03,-3.76,15.80,0.75,8.73,1.77
143082,10.77,-4.91,17.98,0.66,8.73,1.78
143117,11.39,-4.84,20.26,0.65,8.73,1.75
143152,11.99,-4.28,24.22,0.71,8.73,1.77
143186,11.34,-4.14,28.01,0.81,8.73,1.85
143220,9.53,-4.30,30.72,0.88,8.73,2.03
143255,7.04,-5.67,31.53,0.84,8.73,2.22
143290,3.80,-7.64,32.49,0.70,8.73,2.33
143324,0.58,-8.53,33.04,0.40,8.73,2.39
143359,-1.92,-5.83,32.45,0.17,8.73,2.28
143393,-4.07,-4.27,30.70,0.13,8.73,2.05
143428,-6.41,-1.73,29.18,0.24,8.73,1.86
143463,-6.92,-2.04,25.37,0.45,8.73,1.75
143498,-5.92,-2.22,22.03,0.58,8.73,1.70
143532,-5.52,-0.54,19.16,0.68,8.73,1.68
143566,-3.89,-2.08,15.87,0.77,8.73,1.67
143600,0.06,-3.46,14.09,0.77,8.73,1.66
143634,2.84,-3.48,13.76,0.75,8.73,1.61
143668,6.45,-2.20,14.78,0.78,8.73,1.56
143702,8.80,-2.18,16.47,0.78,8.73,1.58
143737,10.51,-3.99,18.67,0.80,8.73,1.57
143771,11.23,-3.86,20.97,0.75,8.73,1.53
143807,12.09,-6.57,24.23,0.72,8.73,1.47
143842,12.04,-6.27,27.13,0.61,8.73,1.36
143876,10.92,-4.04,29.76,0.68,8.73,1.21
143911,7.81,-5.36,32.55,0.90,8.73,1.24
143947,4.42,-5.88,34.99,0.95,8.73,1.33
143981,0.92,-5.35,34.80,1.07,8.73,1.44
144016,-1.35,-5.23,32.96,1.16,8.73,1.53
144051,-4.07,-5.07,31.40,1.31,8.73,1.56
144086,-6.18,-4.98,28.93,1.41,8.73,1.65
144121,-6.67,-5.31,25.14,1.51,8.73,1.78
144156,-5.28,-6.85,21.30,1.40,8.73,1.87
144190,-4.95,-4.19,18.31,1.16,8.73,1.81
144224,-4.78,0.62,16.25,1.03,8.73,1.59
144264,-0.59,2.12,15.45,1.08,8.73,1.32
144298,4.11,3.98,16.15,1.27,8.73,1.21
144332,7.63,2.09,16.28,1.45,8.73,1.25
144368,9.71,-1.78,16.40,1.60,8.73,1.43
144402,11.21,-4.24,19.27,1.50,8.73,1.62
144437,11.89,-4.75,22.40,1.37,8.73,1.77
144472,11.83,-5.25,25.58,1.21,8.73,1.81
144506,11.01,-7.94,28.46,1.09,8.73,1.86
144541,10.47,-4.96,31.93,0.98,8.73,1.77
144576,8.26,-5.81,33.64,0.96,8.73,1.71
144611,3.29,-7.91,34.56,0.93,8.73,1.78
144646,-0.72,-7.19,34.49,0.86,8.73,1.86
144681,-3.03,-5.73,32.79,0.75,8.73,1.89
144716,-4.37,-4.63,29.86,0.68,8.73,1.85
144752,-5.85,-4.92,27.05,0.61,8.73,1.78
144786,-6.65,-3.22,24.31,0.63,8.73,1.71
144820,-6.13,-3.59,21.24,0.76,8.73,1.72
144855,-4.79,-2.66,18.30,0.78,8.73,1.77
144890,-2.29,-2.33,15.38,0.84,8.73,1.77
144924,1.31,-3.24,14.24,0.81,8.73,1.74
144959,5.29,-4.52,14.82,0.78,8.73,1.70
144994,6.82,-5.25,15.04,0.68,8.73,1.77
145029,9.02,-4.45,16.81,0.61,8.73,1.79
145064,10.98,-6.46,19.88,0.56,8.73,1.75
145100,12.48,-5.78,22.60,0.49,8.73,1.66
145134,12.65,-3.43,26.83,0.61,8.73,1.59
145169,10.88,-6.17,30.06,0.79,8.73,1.64
145204,8.54,-4.72,33.12,0.79,8.73,1.67
145239,6.64,-5.83,33.84,0.84,8.73,1.76
145274,3.20,-6.16,33.95,0.87,8.73,1.79
145309,-0.35,-6.29,33.87,0.84,8.73,1.76
145344,-3.41,-4.60,32.24,0.86,8.73,1.73
145379,-5.18,-4.05,29.58,0.85,8.73,1.71
145414,-6.45,-4.37,26.41,0.73,8.73,1.69
145449,-6.97,-2.65,23.37,0.63,8.73,1.58
145484,-6.04,-2.68,19.90,0.66,8.73,1.48
145519,-3.32,-0.98,17.22,0.69,8.73,1.44
145554,-0.58,0.70,15.73,0.78,8.73,1.34
145589,2.26,-0.84,15.23,0.91,8.73,1.37
145624,5.63,-1.93,15.17,0.99,8.73,1.45
145659,8.21,-1.99,15.68,1.01,8.73,1.54
145694,9.92,-2.80,18.06,1.06,8.73,1.62
145729,11.21,-5.36,20.76,1.02,8.73,1.72
145764,12.45,-5.11,23.75,0.99,8.73,1.74
145799,12.43,-6.05,27.94,1.03,8.73,1.76
145833,10.06,-7.15,30.52,1.02,8.73,1.81
145868,7.42,-8.35,32.33,1.02,8.73,1.92
145903,5.00,-6.50,33.98,1.01,8.73,1.97
145938,2.50,-6.54,33.77,0.94,8.73,2.02
145973,-0.66,-5.93,32.69,0.88,8.73,1.97
146008,-3.14,-6.09,30.56,0.90,8.73,1.92
146043,-5.34,-4.35,28.13,0.98,8.73,1.88
146078,-7.49,-4.62,25.24,1.08,8.73,1.92
146113,-8.06,-5.08,22.18,1.05,8.73,2.02
146148,-5.48,-3.41,19.16,1.03,8.73,2.10
146183,-4.11,-4.12,16.18,0.99,8.73,2.24
146218,-2.21,-8.19,13.52,0.84,8.73,2.31
146253,1.90,-8.29,13.63,0.63,8.73,2.34
146293,5.71,-6.31,14.01,0.44,8.73,2.27
146329,8.11,-6.20,15.10,0.27,8.73,2.13
146364,9.82,-2.18,17.48,0.32,8.73,1.91
146398,11.86,-2.75,21.51,0.51,8.73,1.77
146433,12.90,-4.55,25.21,0.60,8.73,1.71
146468,11.61,-4.77,29.22,0.71,8.73,1.68
146503,9.26,-6.26,30.82,0.69,8.73,1.58
146538,7.31,-5.19,32.55,0.70,8.73,1.44
146573,5.11,-4.39,33.85,0.77,8.73,1.30
146608,1.82,-4.30,32.83,0.90,8.73,1.33
146643,-0.89,-3.58,31.41,0.92,8.73,1.45
146678,-5.22,-5.35,30.43,0.85,8.73,1.56
146713,-6.90,-4.47,27.59,0.71,8.73,1.61
146748,-6.94,-1.80,24.37,0.64,8.73,1.57
146783,-7.48,-1.64,21.66,0.72,8.73,1.48
146819,-4.80,-1.76,18.78,0.81,8.73,1.51
146853,-3.48,-2.54,15.76,0.92,8.73,1.64
146888,-2.25,-1.43,14.06,0.97,8.73,1.74
146923,2.37,-3.22,14.63,0.95,8.73,1.92
146958,5.69,-3.15,14.40,0.93,8.73,1.87
146993,8.53,-2.43,15.23,0.96,8.73,1.80
147028,10.45,-0.99,18.48,1.15,8.73,1.72
147063,11.67,-1.72,20.97,1.30,8.73,1.78
147098,13.24,-4.91,23.45,1.25,8.73,1.88
147133,12.65,-7.80,26.99,1.13,8.73,1.93
147168,11.21,-7.20,29.82,0.90,8.73,1.72
147203,8.16,-5.25,32.22,0.86,8.73,1.43
147238,5.22,-4.58,32.38,0.93,8.73,1.16
147273,1.26,-6.24,32.02,1.08,8.73,1.13
147309,-1.69,-5.30,32.44,1.11,8.73,1.29
147343,-3.72,-5.60,30.17,1.00,8.73,1.47
147378,-6.06,-2.79,28.75,0.93,8.73,1.55
147413,-6.54,-3.65,24.95,0.78,8.73,1.58
147447,-6.19,-1.78,21.77,0.75,8.73,1.51
147482,-5.62,0.28,18.84,0.80,8.73,1.51
147517,-4.48,0.84,16.07,0.90,8.73,1.51
147551,-1.44,-0.59,14.10,0.96,8.73,1.46
147586,1.35,-2.04,13.58,1.00,8.73,1.42
147620,5.60,-1.07,14.26,1.12,8.73,1.40
147655,7.27,-1.36,14.73,1.21,8.73,1.44
147690,10.04,-3.17,16.88,1.29,8.73,1.53
147724,11.59,-4.76,19.75,1.27,8.73,1.63
147759,12.67,-5.79,22.33,1.14,8.73,1.66
147794,11.95,-5.85,25.03,1.00,8.73,1.64
147829,10.58,-6.51,27.52,0.91,8.73,1.62
147864,7.98,-6.20,29.50,0.87,8.73,1.60
147899,5.41,-4.07,30.89,0.85,8.73,1.59
147934,2.35,-5.49,30.69,0.84,8.73,1.66
147969,-0.35,-5.26,31.16,0.81,8.73,1.72
148004,-2.83,-4.42,30.15,0.78,8.73,1.68
148039,-5.04,-4.47,28.56,0.69,8.73,1.69
148074,-7.65,-4.49,26.25,0.57,8.73,1.69
148109,-7.29,-2.82,22.99,0.42,8.73,1.60
148144,-5.48,-0.18,19.71,0.37,8.73,1.45
148179,-5.79,1.02,17.62,0.45,8.73,1.36
148214,-5.12,-0.67,14.67,0.64,8.73,1.46
148249,-2.21,-3.36,12.81,0.71,8.73,1.63
148284,2.16,-6.38,12.92,0.63,8.73,1.86
148324,6.31,-3.30,14.07,0.50,8.73,1.89
148359,8.81,-3.68,14.57,0.47,8.73,1.80
148394,10.69,-4.59,16.69,0.49,8.73,1.69
148429,11.91,-4.86,20.02,0.56,8.73,1.59
148464,12.82,-3.50,22.97,0.67,8.73,1.50
148499,11.70,-4.52,26.44,0.82,8.73,1.53
148533,10.09,-6.11,28.57,0.85,8.73,1.46
148569,7.15,-5.61,30.66,0.90,8.73,1.37
148603,4.48,-5.50,31.38,0.95,8.73,1.18
148638,1.35,-5.03,31.83,1.15,8.73,0.99
148673,-1.74,-5.12,31.69,1.39,8.73,0.99
148708,-4.46,-6.12,30.53,1.40,8.73,1.25
148743,-6.22,-4.67,28.22,1.26,8.73,1.50
148778,-6.39,-3.56,24.23,1.04,8.73,1.59
148813,-6.13,-1.66,21.14,0.94,8.73,1.55
148848,-5.42,-0.03,18.44,0.94,8.73,1.52
148883,-3.68,-0.43,15.37,0.98,8.73,1.58
148918,-0.56,0.34,13.44,0.99,8.73,1.58
148953,2.71,1.55,12.67,1.02,8.73,1.54
148988,6.35,1.34,13.21,1.12,8.73,1.44
149022,8.65,1.96,13.76,1.22,8.73,1.40
149057,10.51,1.90,15.10,1.47,8.73,1.41
149092,11.83,-1.84,17.90,1.59,8.73,1.58
149126,12.36,-4.87,19.99,1.56,8.72,1.76
149161,12.18,-6.24,22.02,1.35,8.73,1.89
149196,10.66,-6.53,25.48,1.14,8.73,1.92
149231,9.29,-5.35,28.79,1.01,8.73,1.90
149266,8.28,-5.66,31.67,0.95,8.73,1.95
149301,4.93,-6.76,32.60,0.89,8.73,1.96
149337,0.96,-7.22,31.82,0.84,8.73,1.96
149371,-2.09,-6.37,30.92,0.73,8.73,1.92
149406,-4.52,-5.80,28.28,0.69,8.73,1.83
149441,-5.62,-4.59,25.28,0.69,8.73,1.77
149476,-6.28,-4.21,22.47,0.69,8.73,1.74
149511,-7.00,-3.67,19.84,0.78,8.73,1.75
149546,-6.27,-5.24,16.42,0.88,8.73,1.86
149581,-4.21,-6.46,13.29,0.89,8.73,1.98
149616,-1.10,-7.16,10.81,0.80,8.73,2.06
149651,1.31,-7.29,10.07,0.67,8.67,2.12
149686,4.51,-6.40,10.61,0.56,8.65,2.04
149721,7.03,-5.70,11.89,0.57,8.69,1.88
149755,9.62,-3.77,13.69,0.60,8.73,1.73
149789,10.52,-1.54,16.72,0.76,8.73,1.67
149825,11.21,-4.17,19.43,0.96,8.73,1.68
149859,11.85,-4.95,22.59,1.03,8.73,1.72
149894,11.02,-4.51,26.03,1.02,8.73,1.79
149929,9.53,-4.75,28.25,0.95,8.73,1.74
149964,7.66,-4.70,30.62,0.89,8.73,1.61
149998,4.22,-3.88,31.78,0.91,8.73,1.39
150033,0.47,-3.70,31.48,1.08,8.73,1.30
150068,-2.39,-4.66,30.15,1.23,8.73,1.33
150103,-4.87,-4.74,28.18,1.28,8.73,1.45
150137,-6.83,-4.30,26.10,1.24,8.73,1.58
150172,-7.31,-4.04,23.16,1.14,8.73,1.67
150207,-7.18,-3.54,19.74,1.00,8.73,1.68
150241,-5.38,-2.81,16.57,0.90,8.73,1.64
150276,-3.47,-1.72,14.14,0.84,8.72,1.51
150311,-1.76,-0.17,12.56,0.85,8.73,1.38
150351,2.64,1.61,11.83,0.94,8.73,1.32
150385,5.64,1.09,11.78,1.02,8.73,1.33
150420,7.44,-0.24,12.35,0.98,8.70,1.46
150455,9.92,-3.02,13.89,0.90,8.68,1.55
150489,11.09,-4.23,16.07,0.75,8.66,1.58
150524,11.40,-4.59,18.41,0.63,8.69,1.54
150559,11.69,-4.29,21.78,0.58,8.70,1.45
150594,11.32,-4.15,24.79,0.65,8.71,1.40
150629,9.68,-5.30,27.44,0.74,8.73,1.42
150664,6.95,-5.94,29.47,0.83,8.73,1.47
150699,4.26,-5.65,30.82,0.83,8.73,1.55
150734,0.96,-5.66,30.07,0.80,8.69,1.59
150769,-1.46,-4.31,29.00,0.81,8.64,1.54
150804,-4.09,-3.83,27.42,0.94,8.59,1.44
150840,-6.64,-4.73,26.11,1.04,8.60,1.48
150874,-6.52,-4.12,22.63,1.00,8.63,1.54
150909,-7.34,-2.72,20.23,0.95,8.65,1.57
150944,-6.06,-0.44,17.74,0.88,8.69,1.53
150979,-3.57,-1.55,15.26,0.88,8.72,1.53
151014,-3.43,-0.99,12.66,0.87,8.71,1.51
151049,-0.70,-0.31,11.42,0.88,8.71,1.55
151084,2.03,-1.75,11.43,0.86,8.72,1.63
151119,4.92,-2.67,11.81,0.79,8.70,1.75
151154,7.58,-3.13,13.00,0.70,8.72,1.79
151189,10.42,-2.75,15.65,0.71,8.72,1.74
151224,11.53,-1.82,18.25,0.80,8.68,1.68
151259,12.31,-2.85,21.50,0.96,8.67,1.72
151294,11.10,-4.83,24.17,1.08,8.60,1.87
151330,9.64,-6.12,26.60,1.01,8.59,1.95
151364,7.90,-7.43,28.56,0.93,8.58,1.99
151399,5.31,-7.19,29.69,0.84,8.56,2.05
151434,2.70,-7.00,30.10,0.72,8.62,2.01
151469,-0.14,-6.33,29.55,0.68,8.65,1.83
151504,-2.85,-4.57,28.25,0.68,8.65,1.71
151540,-5.62,-3.66,26.86,0.65,8.64,1.64
151574,-6.88,-3.93,23.98,0.64,8.65,1.58
151609,-7.54,-3.16,21.10,0.51,8.67,1.48
151644,-7.73,-0.53,18.68,0.39,8.71,1.32
151679,-6.54,1.81,16.09,0.36,8.73,1.10
151714,-3.98,2.51,14.13,0.43,8.73,0.81
151749,0.12,4.23,12.85,0.63,8.73,0.66
151784,0.64,2.41,11.22,0.81,8.73,0.88
151818,3.60,-1.42,11.11,0.82,8.73,1.21
151852,7.10,-4.77,11.78,0.66,8.73,1.46
151886,10.28,-4.68,14.20,0.51,8.73,1.51
151921,12.51,-4.96,17.54,0.42,8.73,1.44
151956,13.25,-4.23,19.76,0.38,8.73,1.32
151991,12.74,-3.80,22.78,0.45,8.72,1.20
152026,11.48,-3.50,25.19,0.60,8.64,1.11
152061,9.63,-2.18,27.75,0.73,8.60,1.05
152096,7.53,-3.40,29.41,0.86,8.59,1.08
152131,4.01,-3.37,30.02,0.98,8.62,1.08
152166,0.70,-3.79,29.66,1.12,8.57,1.17
152201,-1.92,-3.86,29.30,1.20,8.56,1.27
152236,-3.98,-4.64,27.08,1.28,8.56,1.38
152271,-5.93,-3.22,25.12,1.35,8.53,1.48
152306,-7.56,-4.68,22.73,1.43,8.52,1.62
152342,-8.29,-5.76,20.06,1.44,8.56,1.78
152381,-7.44,-4.63,16.93,1.34,8.61,1.98
152415,-4.76,-5.43,13.72,1.18,8.64,1.98
152450,-1.32,-4.96,11.79,1.03,8.68,1.86
152485,2.59,-2.98,11.18,0.97,8.65,1.76
152520,4.71,-1.70,11.19,0.98,8.59,1.65
152555,6.39,-2.26,11.40,1.03,8.55,1.57
152590,8.67,-3.03,12.78,1.12,8.55,1.57
152625,10.00,-4.11,14.99,1.12,8.54,1.65
152660,11.22,-3.98,17.35,1.03,8.52,1.72
152694,12.11,-4.51,19.87,1.00,8.52,1.75
152729,11.28,-5.81,22.78,0.92,8.49,1.73
152764,9.45,-5.83,25.79,0.80,8.49,1.64
152798,7.44,-5.82,27.80,0.75,8.45,1.55
152834,5.20,-5.97,28.76,0.74,8.45,1.55
152868,2.83,-6.02,29.26,0.72,8.53,1.60
152903,-0.36,-5.40,29.01,0.63,8.56,1.66
152937,-2.99,-4.63,28.04,0.47,8.58,1.68
152972,-4.92,-2.97,26.18,0.35,8.54,1.62
153007,-6.65,-1.90,24.21,0.21,8.52,1.50
153043,-7.33,-0.89,20.64,0.16,8.51,1.33
153077,-8.32,0.16,18.49,0.26,8.52,1.19
153111,-7.63,-0.02,16.51,0.45,8.58,1.24
153146,-4.44,-1.64,13.62,0.69,8.57,1.48
153181,-2.14,-2.89,11.32,0.78,8.58,1.65
153215,1.85,-4.26,10.50,0.73,8.57,1.79
153250,5.15,-3.63,10.64,0.66,8.51,1.81
153284,7.38,-2.04,11.35,0.57,8.45,1.78
153319,10.08,-3.01,12.65,0.58,8.41,1.69
153354,11.36,-2.62,14.67,0.71,8.35,1.61
153389,11.86,-2.19,17.00,0.90,8.32,1.63
153424,11.39,-4.00,19.19,1.05,8.34,1.73
153459,10.07,-5.75,22.26,1.08,8.36,1.81
153494,8.98,-6.57,24.94,0.99,8.38,1.82
153529,7.43,-7.69,27.38,0.92,8.39,1.78
153564,5.07,-6.84,28.43,0.85,8.40,1.72
153600,3.10,-6.82,29.12,0.84,8.48,1.64
153634,0.01,-5.67,29.00,0.91,8.50,1.58
153669,-3.04,-5.07,26.81,0.91,8.47,1.59
153704,-5.29,-3.52,24.67,0.90,8.40,1.59
153739,-6.66,-3.69,21.86,0.89,8.34,1.58
153774,-6.41,-3.72,19.02,0.84,8.29,1.56
153809,-7.98,-3.14,17.42,0.77,8.31,1.51
153844,-8.45,-2.30,15.40,0.73,8.41,1.47
153879,-5.18,-0.96,13.29,0.69,8.50,1.34
153914,-1.38,1.02,11.62,0.75,8.53,1.23
153949,1.20,1.19,10.29,0.85,8.52,1.21
153984,4.43,0.81,10.76,0.97,8.50,1.21
154019,7.10,0.16,11.79,1.02,8.47,1.26
154053,9.19,-1.82,12.54,1.10,8.48,1.31
154087,10.26,-2.83,14.64,1.13,8.49,1.40
154122,11.73,-2.73,17.32,1.20,8.52,1.49
154157,12.11,-3.70,19.84,1.22,8.58,1.61
154192,11.30,-6.07,23.49,1.18,8.63,1.71
154227,10.27,-6.18,26.36,1.08,8.68,1.71
154262,7.88,-5.77,29.26,1.05,8.66,1.64
154297,4.93,-4.60,30.61,1.03,8.65,1.59
154332,1.79,-4.27,30.41,1.02,8.63,1.58
154368,-0.97,-4.08,28.41,1.10,8.58,1.53
154407,-3.57,-5.41,26.36,1.08,8.50,1.60
154442,-6.00,-5.06,24.74,1.07,8.47,1.66
154477,-7.16,-4.95,22.46,1.03,8.48,1.74
154512,-7.51,-3.82,19.50,0.99,8.48,1.78
154547,-7.44,-3.33,16.78,1.01,8.52,1.89
154582,-4.44,-5.04,13.47,1.01,8.48,2.01
154617,-3.30,-6.83,10.79,0.94,8.39,2.18
154652,-1.39,-7.11,9.56,0.81,8.37,2.17
154687,0.73,-6.28,9.44,0.64,8.41,2.16
154721,3.31,-4.27,10.18,0.53,8.47,2.05
154756,6.06,-3.74,11.06,0.48,8.57,1.91
154791,9.47,-2.93,13.55,0.50,8.65,1.78
154826,11.15,-3.69,16.60,0.50,8.71,1.66
154861,12.31,-4.28,20.03,0.45,8.73,1.56
154896,12.10,-4.55,23.98,0.45,8.73,1.45
154931,11.59,-4.02,27.25,0.46,8.73,1.30
154966,9.13,-3.23,29.64,0.53,8.73,1.13
155001,6.68,-3.33,29.88,0.64,8.70,1.14
155035,3.92,-3.75,30.35,0.76,8.72,1.21
155070,0.37,-4.73,30.33,0.77,8.71,1.35
155105,-2.79,-3.99,29.57,0.73,8.72,1.41
155140,-5.27,-3.83,27.66,0.71,8.73,1.45
155175,-6.72,-3.48,24.62,0.65,8.71,1.46
155210,-6.62,-1.44,20.65,0.56,8.68,1.42
155245,-6.91,-0.56,17.93,0.50,8.65,1.27
155280,-5.71,1.30,15.89,0.50,8.63,1.13
155315,-3.49,2.58,13.66,0.64,8.61,1.12
155350,-0.89,2.14,11.80,0.78,8.59,1.14
155385,1.38,1.66,11.03,0.88,8.56,1.23
155419,3.82,-0.05,11.52,0.94,8.64,1.35
155454,5.84,-2.04,11.91,0.93,8.67,1.49
155487,8.87,-3.48,13.82,0.94,8.70,1.56
155521,10.60,-4.57,15.88,0.93,8.66,1.59
155556,12.01,-3.97,18.07,0.87,8.61,1.62
155590,12.93,-5.05,20.44,0.85,8.60,1.61
155625,11.72,-6.34,23.52,0.86,8.63,1.60
155661,10.43,-5.51,26.33,0.77,8.68,1.53
155695,7.32,-5.19,28.58,0.77,8.70,1.42
155730,3.88,-5.55,29.22,0.81,8.63,1.35
155764,1.98,-5.45,29.81,0.89,8.62,1.37
155799,-0.54,-5.54,28.95,0.95,8.60,1.41
155834,-3.55,-4.86,27.39,0.97,8.58,1.46
155869,-5.72,-3.96,26.04,0.93,8.58,1.54
155904,-6.67,-3.62,23.02,0.90,8.59,1.55
155939,-6.89,-3.24,20.22,0.88,8.60,1.57
155974,-6.64,-1.90,17.58,0.85,8.62,1.56
156009,-5.88,-0.58,15.33,0.87,8.62,1.60
156044,-4.56,-0.17,13.70,0.86,8.64,1.62
156079,-1.97,0.65,12.05,0.84,8.67,1.59
156114,1.07,0.67,11.54,0.84,8.68,1.56
156149,5.21,1.98,11.63,0.89,8.66,1.46
156184,7.45,1.29,12.61,1.03,8.68,1.35
156219,9.52,-0.94,14.80,1.10,8.68,1.42
156254,11.22,-2.83,17.23,0.96,8.70,1.56
156289,12.68,-4.64,20.36,0.85,8.70,1.58
156324,12.38,-4.97,23.42,0.77,8.68,1.52
156359,10.81,-5.02,26.01,0.77,8.66,1.48
156394,8.67,-4.53,27.85,0.80,8.64,1.46
156434,5.97,-4.30,29.29,0.81,8.59,1.61
156469,3.11,-6.25,29.58,0.81,8.62,1.73
156504,0.20,-5.74,29.46,0.77,8.59,1.74
156539,-2.83,-4.56,28.85,0.79,8.58,1.63
156574,-5.22,-3.77,27.24,0.86,8.59,1.58
156609,-6.46,-3.12,24.72,1.02,8.58,1.56
156644,-7.47,-4.11,22.37,1.07,8.61,1.60
156679,-7.70,-3.22,19.28,1.01,8.64,1.62
156714,-6.94,-0.88,16.50,0.87,8.69,1.54
156749,-3.53,1.32,13.97,0.82,8.69,1.41
156784,-0.77,2.20,11.51,0.83,8.65,1.27
156819,2.09,1.50,10.64,0.92,8.62,1.20
156854,4.98,-0.37,11.78,0.99,8.63,1.26
156889,7.59,-2.79,12.15,0.85,8.60,1.49
156924,10.02,-5.76,13.43,0.59,8.56,1.64
156959,11.53,-7.20,15.34,0.30,8.48,1.58
156994,12.23,-4.02,17.64,0.25,8.41,1.41
157028,12.45,-3.83,19.98,0.32,8.37,1.29
157063,11.21,-3.15,22.71,0.51,8.29,1.28
157098,10.07,-3.45,24.67,0.61,8.23,1.31
157133,7.36,-4.83,26.28,0.69,8.26,1.29
157167,5.15,-5.06,27.85,0.73,8.29,1.33
157202,2.84,-4.18,29.24,0.76,8.38,1.30
157236,-0.23,-3.91,29.11,0.83,8.38,1.25
157271,-2.48,-3.13,28.07,0.92,8.42,1.25
157306,-4.81,-4.03,27.74,0.95,8.52,1.31
157341,-7.10,-2.92,26.44,0.96,8.71,1.35
157376,-7.70,-2.88,23.52,0.88,8.73,1.38
157411,-6.53,-2.68,18.97,0.77,8.73,1.30
157446,-6.80,-2.22,16.89,0.73,8.73,1.22
157481,-6.16,-1.55,14.17,0.87,8.73,1.26
157516,0.74,-1.70,11.73,0.98,8.73,1.26
157550,2.35,-2.47,11.94,1.06,8.73,1.31
157585,5.93,-2.50,10.54,1.10,8.65,1.42
157620,9.05,-2.15,10.57,1.12,8.56,1.49
157655,8.16,-0.37,13.39,1.31,8.56,1.49
157690,10.07,-0.91,16.81,1.44,8.56,1.56
157725,11.58,-2.89,18.94,1.67,8.55,1.78
157760,10.75,-5.23,22.44,1.65,8.59,2.00
157795,10.17,-8.33,25.21,1.43,8.61,2.14
157831,8.48,-7.09,27.78,1.17,8.64,2.13
157865,5.64,-7.18,29.53,1.05,8.61,2.15
157900,2.80,-8.29,30.02,0.94,8.53,2.22
157935,-0.01,-7.18,30.09,0.69,8.48,2.25
157970,-2.45,-7.63,29.53,0.49,8.54,2.20
158005,-5.47,-6.35,28.76,0.40,8.63,2.06
158040,-7.41,-4.31,27.25,0.47,8.73,1.90
158075,-7.24,-3.74,23.42,0.53,8.73,1.81
158110,-6.77,-3.27,19.80,0.61,8.73,1.76
158145,-5.20,-4.52,16.08,0.72,8.72,1.83
158180,-2.84,-5.34,13.05,0.71,8.65,1.91
158215,-0.66,-4.45,10.97,0.66,8.61,1.92
158250,1.29,-4.31,10.10,0.58,8.59,1.91
158285,3.99,-2.30,10.50,0.57,8.62,1.73
