timestamp,accelX,accelY,accelZ,gyroX,gyroY,gyroZ
233547,-6.08,-5.90,31.84,1.19,8.73,1.81
233582,-5.90,-4.84,27.78,1.06,8.73,1.89
233617,-4.34,-5.60,22.43,1.07,8.73,1.86
233652,0.44,-2.49,19.29,1.06,8.73,1.87
233687,3.44,-3.45,18.60,1.03,8.73,1.81
233722,5.02,-2.09,19.48,1.08,8.73,1.77
233757,5.92,-1.76,18.90,1.19,8.73,1.70
233792,8.28,-4.83,21.74,1.21,8.73,1.86
233827,11.92,-3.66,24.75,1.30,8.73,1.91
233862,12.90,-6.57,27.78,1.33,8.73,2.08
233902,11.46,-5.38,32.53,1.32,8.73,2.33
233937,10.80,-9.65,36.46,1.35,8.73,2.69
233972,8.73,-10.23,40.11,1.17,8.73,3.01
234007,4.54,-11.46,42.67,0.74,8.73,3.07
234042,0.33,-9.07,43.30,0.51,8.73,2.86
234077,-2.95,-7.82,41.57,0.44,8.73,2.55
234112,-4.07,-6.06,37.21,0.47,8.73,2.34
234147,-4.23,-5.91,31.62,0.45,8.73,2.15
234182,-4.11,-4.34,28.12,0.46,8.73,1.98
234217,-4.53,-1.77,25.74,0.47,8.73,1.85
234252,0.39,-3.02,24.39,0.59,8.73,1.83
234287,1.78,-3.96,23.21,0.59,8.73,1.79
234323,5.09,-5.70,23.35,0.51,8.73,1.89
234357,9.40,-8.21,24.58,0.40,8.73,1.89
234392,11.77,-7.51,27.50,0.12,8.73,1.71
234427,13.18,-7.50,31.00,0.14,8.73,1.38
234462,12.53,-5.19,36.70,0.18,8.73,1.00
234497,10.65,-3.22,40.79,0.37,8.73,0.66
234532,8.79,-2.97,44.02,0.88,8.73,0.70
234567,5.17,-5.22,45.13,1.33,8.73,0.94
234602,0.89,-5.58,45.08,1.56,8.73,1.30
234637,-2.55,-7.16,42.05,1.58,8.73,1.61
234672,-5.20,-6.65,39.10,1.53,8.73,1.85
234707,-6.91,-6.55,35.21,1.42,8.73,2.00
234742,-4.81,-5.31,31.08,1.21,8.73,1.99
234777,-2.52,-2.94,27.41,1.12,8.73,1.92
234812,2.41,-2.96,25.69,1.10,8.73,1.93
234847,5.10,-5.38,25.52,1.09,8.73,2.01
234882,5.68,-5.32,23.91,1.02,8.73,2.18
234917,8.21,-7.26,25.55,0.80,8.73,2.33
234952,11.06,-6.46,30.67,0.63,8.73,2.29
234987,13.28,-6.24,36.21,0.66,8.73,2.24
235022,13.39,-6.79,40.79,0.79,8.73,2.27
235057,10.85,-7.36,43.34,0.81,8.73,2.28
235092,6.76,-7.65,43.08,0.79,8.73,2.33
235127,3.36,-7.63,42.82,0.65,8.73,2.26
235162,0.14,-5.43,43.37,0.62,8.73,2.16
235197,-3.16,-5.75,41.58,0.61,8.73,2.02
235232,-4.41,-5.51,37.29,0.68,8.73,1.90
235267,-5.66,0.15,34.77,0.73,8.73,1.76
235302,-5.42,-2.46,31.71,0.78,8.73,1.66
235337,-2.78,-1.15,27.50,0.90,8.73,1.63
235372,-0.17,-1.84,24.80,1.02,8.73,1.75
235407,5.38,-4.92,26.16,1.01,8.73,1.91
235442,9.46,-8.53,25.30,0.85,8.73,2.14
235477,11.69,-7.67,28.70,0.67,8.73,2.16
235512,12.96,-8.01,33.22,0.56,8.73,2.03
235547,13.68,-6.92,36.71,0.61,8.73,1.92
235582,12.23,-6.98,40.24,0.78,8.73,1.95
235617,9.78,-7.43,42.68,0.82,8.73,1.93
235652,5.80,-8.39,43.45,0.85,8.73,1.98
235687,2.03,-8.50,44.08,0.81,8.73,1.98
235722,-1.42,-6.57,41.86,0.75,8.73,1.99
235757,-5.64,-6.97,40.61,0.68,8.73,1.95
235792,-4.85,-4.13,37.14,0.58,8.73,1.84
235827,-6.56,-1.24,34.26,0.57,8.73,1.62
235862,-4.33,1.39,31.70,0.59,8.73,1.37
235897,-0.38,4.17,28.23,0.85,8.73,1.24
235937,4.16,1.67,26.98,1.17,8.73,1.19
235972,7.38,-2.07,27.56,1.31,8.73,1.56
236007,10.78,-4.40,28.90,1.34,8.73,1.78
236042,14.33,-6.45,31.84,1.35,8.73,1.88
236077,13.96,-5.42,35.32,1.30,8.73,1.95
236112,13.20,-7.38,39.13,1.35,8.73,2.10
236147,10.76,-8.98,41.37,1.32,8.73,2.21
236181,6.91,-8.84,43.26,1.22,8.73,2.28
236216,3.70,-8.94,43.58,1.12,8.73,2.32
236251,0.10,-9.10,43.29,1.09,8.73,2.31
236286,-2.83,-8.06,41.61,1.07,8.73,2.33
236321,-3.84,-6.78,38.41,1.08,8.73,2.34
236356,-4.15,-8.52,33.50,1.12,8.73,2.37
236391,-5.14,-7.10,30.13,1.15,8.73,2.52
236426,-4.36,-10.27,26.08,1.03,8.73,2.67
236461,-0.41,-9.63,24.02,0.88,8.73,2.72
236496,3.25,-7.42,24.02,0.66,8.73,2.60
236531,8.03,-4.91,25.10,0.61,8.73,2.33
236566,10.68,-3.99,26.66,0.75,8.73,2.09
236601,12.78,-4.04,31.77,0.91,8.73,1.99
236636,13.67,-6.50,35.29,1.00,8.73,1.99
236671,13.26,-8.73,38.69,1.05,8.73,1.94
236706,9.62,-6.09,41.20,1.01,8.73,1.83
236741,6.17,-7.09,41.73,1.07,8.73,1.74
236776,2.78,-7.80,42.98,1.25,8.73,1.77
236811,0.09,-3.52,44.97,1.32,8.73,1.74
236847,-2.31,-8.24,38.40,1.34,8.73,1.89
236881,-5.32,-5.54,35.94,1.41,8.73,1.94
236917,-4.92,-6.43,32.95,1.37,8.73,2.04
236952,-4.36,-7.73,28.50,1.22,8.73,2.12
236986,-1.72,-4.07,26.53,1.14,8.73,2.15
237021,3.07,-3.74,25.29,1.06,8.73,2.06
237056,6.03,-5.29,24.71,1.04,8.73,2.13
237091,8.59,-6.98,23.38,0.91,8.73,2.27
237126,10.05,-7.74,25.41,0.73,8.73,2.30
237162,11.76,-6.85,29.97,0.62,8.73,2.19
237196,12.50,-5.43,34.36,0.67,8.73,2.12
237231,12.39,-7.40,38.64,0.74,8.73,2.09
237266,10.19,-6.70,42.11,0.79,8.73,2.08
237301,6.08,-7.52,42.32,0.77,8.73,2.20
237337,2.68,-8.62,43.71,0.76,8.73,2.21
237372,-1.41,-7.78,43.74,0.67,8.73,2.20
237406,-2.86,-5.02,39.85,0.66,8.73,2.10
237442,-4.39,-4.29,36.37,0.77,8.73,1.97
237476,-6.86,-3.32,33.29,0.91,8.73,1.90
237511,-3.93,-2.57,29.69,0.98,8.73,1.95
237546,-1.90,-4.54,25.50,1.00,8.73,2.00
237581,2.89,-4.07,24.71,1.03,8.73,2.02
237616,5.98,-3.20,24.18,1.00,8.73,2.02
237651,9.51,-4.17,23.78,1.05,8.73,1.98
237686,12.25,-4.57,27.42,1.15,8.73,1.98
237721,12.85,-6.38,30.42,1.16,8.73,2.01
237756,13.74,-7.86,33.70,1.18,8.73,2.06
237791,12.66,-6.49,36.79,1.08,8.73,2.10
237826,9.55,-6.72,40.28,1.04,8.73,2.14
237861,6.58,-8.30,41.47,0.96,8.73,2.20
237896,3.05,-8.51,42.15,0.86,8.73,2.33
237931,-0.73,-8.90,41.25,0.86,8.73,2.27
237971,-2.75,-5.20,36.95,0.81,8.73,2.16
238006,-4.83,-4.14,34.37,0.88,8.73,2.09
238041,-6.84,-5.73,31.37,0.85,8.73,2.07
238076,-4.78,-5.86,27.55,0.92,8.73,2.13
238111,-3.87,-4.87,23.75,0.93,8.73,2.21
238146,-2.21,-6.70,23.15,0.88,8.73,2.27
238181,4.62,-7.99,23.74,0.72,8.73,2.33
238216,8.70,-6.98,22.52,0.61,8.73,2.26
238251,11.69,-5.55,26.22,0.69,8.73,2.11
238286,12.43,-6.72,29.98,0.75,8.73,2.01
238322,13.28,-6.50,34.44,0.91,8.73,1.96
238356,12.73,-5.61,38.06,0.97,8.73,2.00
238391,10.05,-7.33,40.77,0.98,8.73,1.99
238426,6.35,-6.59,41.72,0.98,8.73,2.01
238461,2.79,-7.21,41.67,0.97,8.73,2.03
238496,-0.26,-7.17,39.95,1.05,8.73,1.97
238531,-2.45,-4.07,37.60,1.11,8.73,1.96
238566,-6.12,-7.01,34.48,1.16,8.73,2.00
238601,-6.42,-5.75,32.03,1.14,8.73,2.10
238636,-5.35,-7.07,28.74,1.13,8.73,2.21
238671,-3.12,-5.53,24.66,1.11,8.73,2.27
238705,1.52,-6.27,23.44,1.04,8.73,2.28
238740,3.72,-4.06,23.16,1.01,8.73,2.25
238775,7.78,-3.00,23.36,1.04,8.73,2.12
238810,10.92,-5.49,24.87,1.17,8.73,2.07
238845,12.41,-5.11,29.73,1.24,8.73,2.13
238880,13.30,-8.02,32.99,1.25,8.73,2.18
238916,13.13,-8.03,36.10,1.23,8.73,2.28
238950,10.34,-7.80,38.96,1.05,8.73,2.22
238985,6.66,-8.04,40.75,0.96,8.73,2.15
239019,3.83,-7.55,41.88,0.92,8.73,2.09
239053,0.11,-7.09,41.34,1.01,8.73,2.00
239088,-2.70,-6.07,39.01,1.01,8.73,1.97
239123,-5.32,-6.63,36.24,1.08,8.73,2.01
239158,-6.17,-6.48,32.97,1.08,8.73,2.06
239193,-5.61,-5.77,29.03,1.11,8.73,2.12
239228,-3.61,-4.20,25.42,1.05,8.73,2.20
239263,0.89,-6.56,22.28,1.00,8.73,2.23
239298,3.61,-3.98,22.68,0.91,8.73,2.17
239333,6.92,-5.00,21.29,0.94,8.73,2.06
239368,9.19,-2.54,22.71,1.04,8.73,1.97
239403,10.49,-3.44,26.08,1.11,8.73,1.98
239439,12.23,-5.50,30.39,1.13,8.73,2.03
239473,13.17,-7.17,34.82,1.14,8.73,2.06
239508,12.97,-8.52,38.25,1.12,8.73,2.05
239543,9.05,-7.14,40.32,1.07,8.73,1.91
239578,5.69,-6.99,41.88,1.11,8.73,1.77
239612,1.71,-7.00,43.02,1.19,8.73,1.78
239647,-1.48,-6.89,41.16,1.39,8.73,1.80
239682,-4.30,-4.77,39.05,1.41,8.73,1.89
239717,-5.20,-8.10,34.24,1.48,8.73,1.97
239753,-4.91,-5.66,29.34,1.53,8.73,2.08
239788,-1.50,-5.63,26.29,1.39,8.73,2.13
239823,-1.36,-5.30,23.24,1.28,8.73,2.00
239857,1.64,-1.98,23.22,1.27,8.73,1.78
239892,6.78,-1.47,23.05,1.41,8.73,1.71
239927,9.55,-0.71,24.73,1.61,8.73,1.77
239962,11.48,-2.64,25.84,1.68,8.73,1.95
240002,12.54,-6.35,29.50,1.63,8.73,2.19
240037,13.04,-7.78,33.18,1.47,8.73,2.30
240072,11.80,-7.84,36.47,1.26,8.73,2.35
240107,9.56,-10.65,38.88,1.13,8.73,2.38
240142,5.44,-8.54,40.88,1.05,8.73,2.28
240178,2.04,-8.48,42.22,1.05,8.73,2.13
240212,-1.27,-7.38,40.14,1.07,8.73,2.07
240247,-4.51,-5.37,38.12,1.11,8.73,2.04
240282,-4.19,-6.26,34.04,1.13,8.73,2.04
240318,-4.99,-7.14,29.54,1.07,8.73,2.03
240352,-2.92,-3.20,27.76,0.98,8.73,1.98
240387,-2.74,-4.07,23.87,0.94,8.73,1.89
240423,0.68,-3.18,23.42,1.02,8.73,1.89
240457,4.59,-3.04,22.23,1.05,8.73,1.87
240492,8.07,-3.76,23.21,1.14,8.73,1.82
240527,11.75,-4.40,24.00,1.17,8.73,1.83
240562,12.75,-5.52,27.55,1.16,8.73,1.90
240598,13.23,-6.38,31.32,1.22,8.73,1.97
240633,12.00,-7.84,34.52,1.27,8.73,2.07
240667,10.29,-8.01,37.26,1.13,8.73,2.11
240702,6.92,-9.17,40.35,1.06,8.73,2.11
240737,3.58,-7.26,42.31,1.02,8.73,2.08
240772,-0.12,-8.08,41.68,0.99,8.73,2.06
240807,-3.00,-7.75,39.16,1.00,8.73,2.05
240842,-4.81,-6.26,35.93,0.91,8.73,2.07
240877,-5.66,-6.54,31.55,0.91,8.73,2.07
240912,-4.45,-5.95,27.95,0.88,8.73,2.03
240947,-3.49,-2.32,24.28,0.90,8.73,2.02
240982,-1.39,-3.95,21.81,0.91,8.73,2.00
241017,1.38,-2.53,20.73,0.88,8.73,1.90
241052,6.04,-4.14,20.94,0.90,8.73,1.94
241087,9.86,-3.10,22.25,0.94,8.73,1.90
241122,12.05,-3.73,26.40,1.01,8.73,1.87
241157,13.42,-6.77,29.29,1.02,8.73,1.89
241192,12.70,-5.73,33.28,1.05,8.73,1.89
241227,11.79,-7.27,36.39,1.10,8.73,1.94
241262,9.45,-6.68,39.65,1.05,8.73,1.92
241297,5.71,-8.54,40.23,1.09,8.73,1.99
241332,1.78,-8.05,41.17,1.15,8.73,1.94
241367,-1.04,-5.87,38.55,1.12,8.73,1.97
241402,-3.95,-6.51,36.05,1.19,8.73,1.98
241437,-5.43,-6.70,33.15,1.20,8.73,2.06
241472,-6.79,-5.46,28.97,1.16,8.73,2.12
241507,-6.21,-6.80,26.35,1.01,8.73,2.17
241542,-3.17,-4.99,23.58,1.03,8.73,2.24
241577,0.42,-5.35,22.66,0.94,8.73,2.31
241612,4.47,-4.90,21.47,0.84,8.73,2.27
241647,8.44,-4.75,21.67,0.82,8.73,2.14
241682,10.91,-5.16,23.36,0.85,8.73,2.05
241717,12.88,-5.03,26.60,0.86,8.73,1.96
241752,12.98,-5.49,29.48,0.88,8.73,1.90
241787,11.61,-6.75,32.82,0.85,8.73,1.85
241823,11.02,-6.39,37.40,0.84,8.73,1.76
241857,8.70,-6.56,40.25,0.84,8.73,1.66
241892,4.55,-6.88,40.63,0.95,8.73,1.66
241927,0.81,-7.13,39.90,1.05,8.73,1.67
241962,-2.91,-4.28,39.06,1.05,8.73,1.72
241997,-5.07,-5.90,35.18,1.04,8.73,1.76
242037,-6.55,-4.17,31.72,0.96,8.73,1.80
242072,-5.52,-4.93,28.12,0.95,8.73,1.85
242107,-4.59,-3.51,24.79,1.02,8.73,1.90
242142,-2.53,-3.28,22.61,1.00,8.73,1.98
242177,1.14,-5.18,21.01,0.98,8.73,2.02
242212,4.74,-5.33,20.37,0.94,8.73,2.07
242247,8.40,-4.79,20.78,0.87,8.73,2.11
242283,11.61,-5.42,26.18,0.84,8.73,2.10
242317,13.75,-5.07,29.03,0.83,8.73,2.05
242352,13.53,-6.81,31.73,0.93,8.73,2.06
242387,12.17,-6.23,35.02,0.94,8.73,2.07
242422,8.93,-7.17,37.22,0.92,8.73,2.12
242457,6.34,-8.10,38.82,0.89,8.73,2.25
242492,2.73,-7.35,39.89,0.84,8.73,2.19
242528,0.11,-5.80,39.39,0.74,8.73,2.12
242563,-4.09,-6.54,37.95,0.78,8.73,2.04
242597,-5.77,-3.56,35.67,0.83,8.73,1.93
242632,-6.98,-2.66,31.22,0.94,8.73,1.89
242667,-3.99,-5.49,27.41,0.92,8.73,1.86
242702,-3.73,-2.87,23.56,1.08,8.73,1.96
242737,1.14,-2.84,23.30,1.05,8.73,1.87
242772,3.45,-3.92,21.49,1.05,8.73,1.88
242807,6.71,-4.33,19.49,1.07,8.73,1.89
242843,8.36,-4.63,21.44,1.12,8.73,1.90
242877,11.68,-4.74,25.22,1.10,8.73,1.94
242912,13.84,-5.21,29.03,1.07,8.73,1.97
242947,13.20,-7.46,32.91,1.06,8.73,2.00
242982,11.54,-6.98,36.00,1.05,8.73,2.02
243017,9.27,-8.39,39.08,1.01,8.73,2.05
243053,5.81,-7.51,38.87,0.97,8.73,2.08
243087,2.27,-9.76,39.81,0.96,8.73,2.11
243123,-1.68,-7.19,39.31,0.89,8.73,2.11
243157,-5.55,-7.40,38.30,0.94,8.73,2.05
243192,-6.91,-6.24,34.35,0.86,8.73,2.05
243227,-5.13,-4.22,29.49,0.95,8.73,2.06
243262,-3.17,-4.97,25.49,0.94,8.73,2.08
243297,-2.03,-5.01,22.26,0.92,8.73,2.03
243332,2.35,-4.31,20.55,0.89,8.73,2.04
243367,3.02,-4.60,20.47,0.81,8.73,2.07
243402,5.92,-6.21,20.56,0.71,8.73,2.12
243437,10.09,-5.80,23.23,0.67,8.73,2.06
243472,12.72,-5.17,27.04,0.64,8.73,1.93
243508,13.40,-5.82,29.84,0.69,8.73,1.87
243542,13.18,-6.62,33.51,0.78,8.73,1.80
243576,11.60,-5.85,36.84,0.83,8.73,1.88
243611,7.79,-7.83,38.09,0.88,8.73,1.93
243646,4.71,-9.66,39.83,0.81,8.73,2.12
243681,0.46,-6.60,41.24,0.72,8.73,2.21
243716,-2.01,-5.83,39.55,0.57,8.73,2.12
243751,-5.08,-5.56,36.51,0.53,8.73,2.04
243786,-5.37,-2.62,32.58,0.62,8.73,1.91
243821,-5.96,-2.67,28.98,0.66,8.73,1.85
243856,-3.26,-4.12,24.17,0.79,8.73,1.84
243891,-1.73,-2.57,21.52,0.89,8.73,1.92
243926,2.33,-4.05,20.37,0.89,8.73,1.95
243961,5.15,-5.48,19.99,0.83,8.73,2.05
243996,7.96,-5.79,21.27,0.79,8.73,2.06
244031,9.94,-4.87,23.12,0.72,8.73,2.01
244071,12.76,-6.20,25.78,0.74,8.73,1.90
244106,13.13,-6.15,29.18,0.80,8.73,1.88
244141,12.55,-6.55,33.44,0.92,8.73,1.89
244176,10.28,-7.50,35.88,0.92,8.73,1.88
244211,7.77,-6.68,39.47,0.89,8.73,1.78
244246,3.88,-8.36,39.34,0.93,8.73,1.83
244281,-0.15,-5.60,40.36,0.90,8.73,1.84
244317,-2.51,-7.88,36.53,0.90,8.73,1.84
244351,-4.35,-4.57,34.52,0.82,8.73,1.83
244386,-6.81,-4.29,32.04,0.78,8.73,1.82
244421,-6.71,-4.89,28.05,0.75,8.73,1.74
244456,-5.33,-0.96,24.40,0.85,8.73,1.72
244491,-1.88,-2.87,21.80,0.89,8.73,1.75
244526,0.80,-3.22,20.18,0.97,8.73,1.83
244561,5.94,-4.06,21.30,1.02,8.73,1.86
244596,9.40,-2.80,21.86,1.04,8.73,1.89
244631,12.27,-3.40,24.29,1.15,8.73,1.88
244666,11.77,-6.39,27.87,1.24,8.73,1.96
244701,14.09,-4.29,31.20,1.16,8.73,2.01
244736,12.38,-7.55,33.38,1.17,8.73,2.14
244771,9.97,-8.18,36.25,1.13,8.73,2.19
244807,7.08,-7.78,38.63,1.02,8.73,2.18
244842,3.70,-8.15,38.91,0.96,8.73,2.17
244876,-0.25,-7.30,39.15,0.96,8.73,2.12
244911,-4.04,-6.27,38.02,0.87,8.73,2.06
244946,-4.82,-6.64,33.88,0.90,8.73,2.01
244981,-4.79,-5.57,30.24,0.89,8.73,1.98
245016,-6.18,-4.92,27.39,0.86,8.73,1.99
245051,-5.50,-4.01,24.64,0.93,8.73,1.97
245086,-2.41,-2.63,21.50,0.86,8.73,1.91
245121,1.12,-3.96,20.06,0.85,8.73,1.87
245156,5.11,-3.28,20.22,0.87,8.73,1.89
245191,9.32,-4.18,21.49,0.89,8.73,1.86
245226,12.61,-4.17,25.28,0.93,8.73,1.82
245261,13.11,-4.84,27.58,1.03,8.73,1.79
245296,12.72,-4.57,31.29,1.10,8.73,1.79
245331,12.36,-6.67,34.39,1.16,8.73,1.84
245366,9.39,-7.07,36.83,1.17,8.73,1.78
245401,6.29,-6.55,38.71,1.18,8.73,1.69
245436,3.15,-5.25,40.25,1.32,8.73,1.62
245471,-0.28,-7.06,37.01,1.50,8.73,1.59
245506,-3.78,-6.69,37.20,1.64,8.73,1.75
245541,-5.96,-5.78,34.70,1.63,8.73,1.94
245576,-6.83,-8.52,30.38,1.56,8.73,2.16
245611,-5.68,-7.79,26.88,1.43,8.73,2.26
245646,-6.02,-6.16,23.64,1.22,8.73,2.35
245681,-0.82,-5.99,20.84,1.10,8.73,2.30
245716,1.02,-6.47,19.88,0.98,8.73,2.32
245751,4.41,-4.05,20.33,0.92,8.73,2.17
245786,8.28,-3.44,22.01,0.90,8.73,2.10
245822,11.00,-5.56,26.25,0.89,8.73,2.04
245856,13.81,-5.41,28.94,0.84,8.73,1.98
245891,12.73,-6.77,32.25,0.77,8.73,1.94
245926,12.02,-7.18,34.90,0.77,8.73,1.83
245961,9.35,-5.15,36.81,0.75,8.73,1.69
245996,6.53,-6.50,39.26,0.82,8.73,1.64
246031,2.86,-6.17,39.96,0.92,8.73,1.63
246066,-0.01,-5.00,38.05,1.02,8.73,1.65
246106,-4.85,-5.02,37.86,1.15,8.73,1.68
246141,-6.84,-4.67,34.95,1.23,8.73,1.77
246176,-6.87,-5.37,30.69,1.33,8.73,1.87
246211,-6.77,-3.41,27.08,1.33,8.73,1.95
246246,-5.29,-4.20,23.85,1.27,8.73,2.02
246281,0.12,-3.75,21.49,1.25,8.73,1.98
246316,3.25,-2.80,19.81,1.25,8.73,1.89
246352,7.04,-2.87,19.91,1.26,8.73,1.95
246387,10.03,-3.44,22.15,1.34,8.73,2.00
246421,12.46,-5.66,25.66,1.38,8.73,2.06
246456,13.36,-6.58,28.15,1.29,8.73,2.11
246491,13.22,-7.51,30.93,1.13,8.73,2.18
246526,10.65,-8.23,33.37,1.01,8.73,2.19
246561,9.56,-8.43,37.46,0.87,8.73,2.10
246596,5.60,-7.54,37.92,0.81,8.73,2.10
246631,2.01,-6.48,38.07,0.73,8.73,2.06
246666,-1.77,-6.95,37.20,0.57,8.73,2.01
246701,-4.80,-6.15,36.47,0.52,8.73,1.90
246736,-4.37,-3.31,32.45,0.42,8.73,1.76
246771,-5.19,-3.16,29.20,0.38,8.73,1.59
246806,-6.64,0.90,26.80,0.46,8.73,1.38
246842,-6.41,2.71,24.08,0.61,8.73,1.27
246876,0.60,-0.83,22.34,0.87,8.73,1.29
246911,4.17,-2.20,19.93,1.03,8.73,1.51
246946,6.98,-2.04,20.61,1.13,8.73,1.62
246981,10.96,-4.76,23.27,1.17,8.73,1.73
247017,12.61,-6.11,24.84,1.17,8.73,1.78
247051,13.26,-3.87,27.79,1.24,8.73,1.87
247087,12.60,-7.57,30.96,1.29,8.73,2.00
247121,11.85,-7.89,34.15,1.29,8.73,2.14
247156,9.26,-9.03,36.77,1.17,8.73,2.23
247191,5.34,-9.67,37.69,1.06,8.73,2.22
247226,2.17,-8.11,38.75,1.00,8.73,2.16
247261,-0.83,-9.08,37.13,1.00,8.73,2.10
247296,-4.09,-6.16,34.85,0.96,8.73,2.07
247331,-4.68,-6.85,30.73,0.98,8.73,2.04
247366,-5.26,-6.17,26.78,0.94,8.73,2.02
247401,-5.47,-4.88,25.06,0.95,8.73,2.05
247436,-4.37,-6.17,21.74,0.92,8.73,2.04
247471,-1.52,-5.26,19.52,0.84,8.73,1.99
247506,3.00,-6.85,18.37,0.75,8.73,2.01
247541,7.00,-4.06,18.25,0.71,8.73,1.98
247576,9.68,-5.44,17.42,0.66,8.73,1.94
247611,11.03,-6.33,20.34,0.61,8.73,1.91
247646,14.50,-3.75,25.61,0.67,8.73,1.84
247681,11.87,-4.56,29.19,0.80,8.73,1.88
247716,10.88,-5.92,31.15,0.95,8.73,1.99
247751,10.67,-6.93,34.44,0.87,8.73,2.03
247786,6.58,-7.78,35.16,0.78,8.73,2.09
247821,3.28,-9.73,36.03,0.64,8.73,2.25
247856,-0.71,-6.76,40.59,0.41,8.73,2.19
247891,-2.12,-7.25,35.38,0.33,8.73,2.07
247926,-5.17,-2.38,33.05,0.16,8.73,1.85
247961,-6.93,-2.30,29.03,0.23,8.73,1.58
247996,-6.87,-0.41,26.48,0.20,8.73,1.27
248031,-7.95,0.59,25.26,0.39,8.73,1.15
248066,-4.02,1.40,21.71,0.72,8.73,1.12
248101,-0.15,0.84,18.80,0.99,8.73,1.16
248141,1.47,0.28,19.02,1.23,8.73,1.33
248176,9.03,-1.88,18.56,1.41,8.73,1.46
248211,11.38,-2.92,22.43,1.60,8.73,1.64
248246,13.82,-4.87,25.30,1.72,8.73,1.83
248281,12.64,-5.40,27.40,1.72,8.73,2.11
248317,11.65,-9.55,29.43,1.66,8.73,2.39
248351,11.54,-10.70,33.08,1.45,8.73,2.67
248386,7.51,-11.59,34.93,1.16,8.73,2.82
248421,4.52,-11.93,39.10,0.85,8.73,2.77
248456,0.97,-9.67,40.17,0.55,8.73,2.64
248491,-2.38,-10.36,35.78,0.38,8.73,2.44
248526,-4.69,-7.31,33.13,0.16,8.73,2.19
248561,-4.47,-4.17,29.63,0.03,8.73,1.89
248596,-6.16,-3.27,26.42,-0.01,8.73,1.50
248631,-9.80,2.00,26.50,0.06,8.73,1.13
248666,-5.76,1.72,24.23,0.44,8.73,0.96
248701,1.08,3.06,21.93,0.85,8.73,0.87
248736,5.40,0.53,20.17,1.21,8.73,0.87
248771,9.92,1.54,20.74,1.70,8.73,0.94
248806,12.41,-0.81,24.29,2.07,8.73,1.13
248842,13.43,-5.24,26.31,2.12,8.73,1.50
248876,13.13,-8.23,28.79,2.01,8.73,1.96
248911,11.60,-12.83,33.45,1.80,8.73,2.26
248946,9.71,-11.02,37.93,1.54,8.73,2.41
248981,6.93,-11.95,38.98,1.32,8.73,2.54
249016,1.95,-11.19,39.99,0.99,8.73,2.67
249051,-1.60,-10.65,38.42,0.65,8.73,2.66
249086,-3.07,-10.85,33.69,0.29,8.73,2.60
249120,-5.82,-5.65,31.47,0.03,8.73,2.27
249155,-6.68,-3.22,28.84,-0.08,8.73,1.95
249190,-2.66,-2.56,23.73,0.03,8.73,1.58
249225,-3.58,0.28,20.57,0.14,8.73,1.33
249260,-2.19,1.05,18.25,0.43,8.73,1.14
249295,-2.51,-1.89,18.49,0.64,8.73,0.99
249330,5.26,-0.04,18.21,0.91,8.73,0.95
249366,9.72,-2.42,18.22,1.03,8.73,1.09
249400,12.37,-2.72,24.60,1.28,8.73,1.24
249435,15.65,-5.94,26.11,1.23,8.73,1.35
249470,14.36,-6.47,27.92,1.35,8.73,1.47
249505,10.89,-6.21,28.97,1.48,8.73,1.68
249540,9.49,-7.07,31.53,1.46,8.73,1.83
249575,6.48,-8.52,32.90,1.43,8.73,2.05
249610,3.21,-9.03,33.91,1.33,8.73,2.18
249645,0.27,-8.53,32.95,1.29,8.73,2.17
249680,-2.61,-7.85,29.86,1.19,8.73,2.17
249715,-5.22,-6.98,28.30,1.12,8.73,2.15
249750,-7.61,-7.04,26.76,1.09,8.73,2.15
249785,-4.88,-8.27,21.39,1.14,8.73,2.24
249820,-7.03,-7.48,17.75,1.08,8.73,2.33
249855,-6.73,-6.39,16.32,1.03,8.73,2.44
249890,-2.67,-7.60,14.23,0.81,8.73,2.39
249926,0.31,-5.64,13.20,0.61,8.73,2.13
249960,3.14,-3.21,14.19,0.53,8.73,1.94
249995,4.86,-4.18,13.11,0.50,8.73,1.83
250030,8.84,-5.58,14.83,0.42,8.73,1.81
250065,11.35,-6.08,18.09,0.35,8.73,1.72
250100,12.79,-5.01,21.10,0.29,8.73,1.57
250135,12.30,-3.62,24.60,0.34,8.73,1.44
250175,11.58,-3.79,27.14,0.56,8.73,1.43
250210,9.94,-4.50,29.22,0.72,8.73,1.49
250245,7.52,-5.26,30.97,0.80,8.73,1.53
250280,3.94,-5.68,31.85,0.82,8.73,1.56
250316,0.70,-5.76,32.78,0.84,8.73,1.65
250350,-1.92,-4.33,31.76,0.87,8.73,1.65
250385,-4.23,-3.62,29.68,0.94,8.73,1.61
250420,-6.06,-3.27,27.41,1.04,8.73,1.61
250455,-7.75,-4.19,24.63,1.16,8.73,1.65
250490,-6.64,-3.83,20.74,1.19,8.73,1.69
250525,-5.75,-4.03,17.53,1.16,8.73,1.71
250560,-4.73,-1.51,15.66,1.11,8.73,1.62
250595,-0.61,-1.37,15.70,1.13,8.73,1.51
250630,1.89,-0.53,13.82,1.18,8.73,1.43
250665,5.08,-0.02,14.15,1.30,8.73,1.42
250700,9.43,-2.04,16.04,1.41,8.73,1.47
250735,11.77,-4.25,17.48,1.42,8.73,1.64
250770,12.47,-5.52,20.48,1.35,8.73,1.79
250805,13.30,-6.65,23.18,1.23,8.73,1.89
250840,12.37,-6.99,25.54,1.14,8.73,1.99
250875,10.20,-7.10,28.26,1.03,8.73,2.07
250910,6.81,-7.67,30.54,1.00,8.73,2.28
250945,4.84,-8.77,31.74,0.86,8.73,2.53
250980,1.45,-7.97,33.57,0.53,8.73,2.65
251015,-2.06,-7.93,32.38,0.27,8.73,2.57
251050,-4.47,-5.85,31.30,0.12,8.73,2.32
251085,-5.93,-4.13,28.79,0.16,8.73,2.04
251120,-6.86,-3.28,26.00,0.27,8.73,1.89
251155,-8.21,-3.88,22.29,0.45,8.73,1.86
251190,-4.97,-3.29,19.31,0.53,8.73,1.86
251225,-3.16,-3.16,15.68,0.56,8.73,1.87
251260,1.45,-4.52,13.80,0.55,8.73,1.85
251295,3.21,-4.11,13.26,0.49,8.73,1.84
251331,5.21,-5.44,12.23,0.39,8.73,1.85
251365,7.84,-5.34,13.56,0.25,8.73,1.89
251400,10.15,-5.02,17.20,0.18,8.73,1.75
251435,12.02,-2.22,20.15,0.31,8.73,1.54
251470,12.23,-1.38,23.23,0.64,8.73,1.46
251505,11.46,-3.42,25.97,0.94,8.73,1.58
251540,10.72,-5.53,28.37,1.06,8.73,1.71
251575,7.97,-5.66,31.09,1.05,8.73,1.75
251610,5.41,-6.44,33.09,1.06,8.73,1.67
251645,2.15,-6.13,33.76,1.12,8.73,1.63
251680,-0.94,-5.60,32.64,1.18,8.73,1.61
251715,-3.59,-5.31,30.08,1.23,8.73,1.66
251750,-5.61,-4.63,27.04,1.32,8.73,1.71
251785,-7.10,-5.18,23.34,1.28,8.73,1.82
251821,-7.14,-5.13,20.31,1.24,8.73,1.95
251855,-6.30,-5.09,17.33,1.22,8.73,2.10
251890,-8.17,-5.59,15.16,1.15,8.73,2.29
251925,-3.59,-6.44,14.84,0.99,8.73,2.38
251960,0.15,-5.52,12.37,0.77,8.73,2.29
251995,4.70,-3.98,12.51,0.62,8.73,2.17
252030,6.73,-2.03,13.48,0.59,8.73,2.00
252065,9.54,-2.79,15.65,0.63,8.73,1.86
252100,12.58,-3.90,19.25,0.64,8.73,1.78
252135,11.48,-6.88,20.07,0.51,8.73,1.70
252170,11.89,-5.27,23.76,0.32,8.73,1.52
252210,10.74,-3.50,28.05,0.27,8.73,1.28
252245,8.65,-3.74,31.23,0.44,8.73,1.10
252280,5.41,-3.46,32.92,0.64,8.73,1.11
252316,3.06,-3.95,34.29,0.76,8.73,1.34
252350,-0.14,-4.01,32.62,0.68,8.73,1.45
252385,-2.63,-3.07,30.15,0.63,8.73,1.50
252419,-5.23,-2.77,27.57,0.58,8.73,1.50
252454,-6.43,-1.63,24.92,0.58,8.73,1.45
252489,-6.20,0.48,21.84,0.72,8.73,1.39
252524,-5.92,0.53,18.90,1.00,8.73,1.48
252559,-6.79,-3.89,17.05,1.15,8.73,1.68
252594,-3.33,-2.96,13.59,1.16,8.73,1.80
252629,-1.35,-3.13,11.86,1.11,8.73,1.96
252664,3.72,-2.64,13.26,1.08,8.73,1.89
252699,7.11,-1.56,13.60,1.10,8.73,1.84
252734,8.82,-2.43,15.28,1.19,8.73,1.82
252769,9.75,-2.34,17.65,1.29,8.73,1.86
252804,11.49,-3.62,18.70,1.39,8.73,1.94
252839,12.00,-4.49,21.58,1.32,8.73,2.10
252874,10.68,-7.39,24.85,1.22,8.73,2.25
252909,10.28,-8.90,28.47,1.01,8.73,2.28
252944,7.65,-8.07,31.07,0.82,8.73,2.21
252979,4.70,-7.39,31.93,0.68,8.73,2.16
253014,1.51,-6.98,32.46,0.56,8.73,2.08
253049,-1.37,-6.72,31.21,0.42,8.73,2.01
253084,-4.74,-6.31,30.16,0.29,8.73,1.89
253119,-7.25,-4.59,28.98,0.21,8.73,1.73
253154,-6.09,-2.46,24.83,0.24,8.73,1.55
253189,-7.17,-0.80,21.81,0.28,8.73,1.33
253224,-6.77,0.38,19.37,0.37,8.73,1.14
253259,-4.24,2.06,16.52,0.52,8.73,0.92
253294,-0.83,3.94,15.01,0.76,8.73,0.78
253329,2.44,3.36,14.68,1.04,8.73,0.74
253364,5.15,1.43,14.45,1.29,8.73,0.85
253399,7.75,0.34,16.18,1.50,8.73,1.02
253434,10.25,-3.60,19.20,1.56,8.73,1.25
253469,12.94,-6.86,21.87,1.39,8.73,1.46
253504,13.33,-6.37,24.86,1.22,8.73,1.55
253539,11.63,-6.04,28.14,1.15,8.73,1.57
253574,10.12,-7.37,30.21,1.11,8.73,1.54
253609,7.51,-7.16,31.75,1.12,8.73,1.58
253644,4.22,-7.24,32.11,1.10,8.73,1.71
253679,1.17,-7.76,32.68,1.05,8.73,1.82
253714,-0.79,-8.25,31.56,1.00,8.73,1.96
253749,-3.91,-7.30,30.61,0.98,8.73,1.96
253784,-6.50,-5.56,28.82,1.02,8.73,1.93
253819,-6.58,-5.66,24.83,0.98,8.73,1.95
253854,-7.40,-5.16,21.45,1.00,8.73,2.01
253889,-5.93,-5.55,18.08,1.05,8.73,2.09
253924,-4.31,-5.92,15.35,0.98,8.73,2.21
253959,-0.38,-6.68,14.07,0.89,8.73,2.31
253994,2.40,-6.39,12.64,0.72,8.73,2.33
254029,6.09,-5.22,13.10,0.65,8.73,2.15
254064,9.01,-3.51,13.47,0.69,8.73,1.94
254099,10.77,-2.55,17.13,0.83,8.73,1.80
254134,12.84,-2.98,18.68,1.00,8.73,1.77
254169,12.35,-3.51,21.91,1.17,8.73,1.86
254204,12.01,-6.56,25.15,1.19,8.73,1.99
254244,10.34,-7.98,28.46,1.02,8.73,2.03
254279,8.24,-7.47,30.69,0.83,8.73,1.95
254315,5.02,-7.89,31.27,0.72,8.73,1.84
254350,2.08,-6.87,32.28,0.65,8.73,1.82
254384,-1.02,-7.18,33.05,0.54,8.73,1.83
254419,-3.07,-8.55,30.43,0.26,8.73,1.90
254454,-6.21,-5.53,29.55,-0.01,8.73,1.81
254489,-7.18,-2.44,26.34,-0.25,8.73,1.55
254524,-8.67,1.11,23.24,-0.27,8.73,1.22
254559,-7.63,3.16,21.30,-0.07,8.73,0.95
254594,-4.88,5.02,19.38,0.26,8.73,0.78
254629,-2.06,2.99,16.73,0.62,8.73,0.81
254664,2.49,0.25,15.80,0.85,8.73,0.94
254699,6.31,-2.86,16.06,0.93,8.73,1.31
254734,9.96,-5.67,15.32,0.87,8.73,1.56
254769,10.63,-6.82,17.97,0.74,8.73,1.63
254804,11.61,-5.93,21.33,0.62,8.73,1.60
254839,11.88,-6.68,24.15,0.57,8.73,1.52
254874,11.56,-5.87,27.42,0.67,8.73,1.50
254909,10.10,-6.15,29.02,0.81,8.73,1.60
254944,8.29,-6.51,31.80,0.86,8.73,1.73
254979,5.55,-7.65,32.38,0.82,8.73,1.99
255014,1.61,-8.60,33.37,0.64,8.73,2.16
255049,-0.93,-7.66,32.76,0.38,8.73,2.25
255084,-4.38,-6.89,31.77,0.17,8.73,2.15
255119,-5.28,-3.34,29.26,0.04,8.73,1.90
255154,-6.43,-3.29,25.96,0.19,8.73,1.65
255190,-7.40,-1.58,22.27,0.29,8.73,1.45
255224,-6.66,-1.76,19.90,0.44,8.73,1.31
255259,-4.49,0.89,18.34,0.60,8.73,1.16
255294,-2.37,2.19,17.00,0.83,8.73,1.00
255329,2.34,1.48,16.48,1.09,8.73,0.97
255364,8.37,-0.37,16.72,1.28,8.73,1.21
255399,11.23,-3.41,18.88,1.37,8.73,1.43
255434,12.50,-5.55,21.36,1.38,8.73,1.59
255469,13.05,-4.20,23.65,1.44,8.73,1.75
255504,12.82,-5.06,26.27,1.58,8.73,1.97
255539,10.89,-8.22,29.42,1.68,8.73,2.31
255574,9.43,-8.83,31.52,1.48,8.73,2.61
255609,6.40,-11.05,34.17,1.20,8.73,2.92
255644,2.32,-12.25,34.95,0.85,8.73,2.99
255679,-0.44,-8.61,36.34,0.54,8.73,2.78
255714,-2.92,-10.13,32.05,0.39,8.73,2.57
255749,-5.62,-4.85,30.10,0.38,8.73,2.29
255784,-6.23,-5.09,26.81,0.75,8.73,2.15
255820,-4.86,-6.60,22.10,0.94,8.73,2.15
255854,-1.19,-6.73,17.79,0.96,8.73,2.15
255889,-2.14,-5.26,14.69,0.83,8.73,1.95
255924,0.09,-2.19,14.43,0.70,8.73,1.47
255959,1.79,1.32,14.12,0.81,8.73,1.04
255994,4.48,2.27,13.88,1.06,8.73,1.04
256029,7.70,-2.51,13.35,1.19,8.73,1.27
256064,10.31,-7.14,17.38,1.11,8.73,1.44
256099,12.23,-5.81,20.79,0.93,8.73,1.51
256134,12.51,-5.34,24.04,0.87,8.73,1.55
256169,11.98,-3.70,26.92,1.08,8.73,1.72
256204,10.43,-6.09,28.70,1.31,8.73,2.13
256239,9.33,-8.90,31.50,1.30,8.73,2.68
256279,3.84,-9.79,32.19,1.01,8.73,3.19
256315,1.98,-11.53,36.39,0.64,8.73,3.21
256349,-1.37,-8.45,36.13,0.37,8.73,2.94
256384,-4.08,-4.27,31.99,0.47,8.73,2.50
256419,-3.47,-6.18,25.53,0.67,8.73,2.21
256454,-4.06,-5.65,21.27,0.69,8.73,2.10
256489,-4.97,-6.77,18.63,0.64,8.73,2.03
256524,-7.09,-3.74,17.39,0.47,8.73,1.87
256559,-3.99,-2.77,16.04,0.36,8.73,1.58
256594,-0.31,-0.89,14.46,0.37,8.73,1.35
256629,5.62,-1.30,14.69,0.40,8.73,1.32
256664,9.04,-3.59,15.00,0.40,8.73,1.33
256699,6.74,-4.51,14.35,0.21,8.73,1.45
256734,11.98,-6.03,18.62,0.06,8.73,1.34
256769,9.81,-4.24,20.59,0.11,8.73,1.20
256804,11.07,-1.90,24.88,0.24,8.73,0.99
256839,11.23,-3.86,28.17,0.39,8.73,0.84
256874,10.61,-5.10,31.29,0.62,8.73,0.70
256909,7.03,-3.18,32.76,0.87,8.73,0.57
256944,3.86,-2.94,35.26,1.21,8.73,0.58
256979,1.31,-3.24,35.41,1.60,8.73,0.68
257014,-1.24,-5.60,32.73,1.86,8.73,0.97
257049,-5.06,-5.48,31.65,1.86,8.73,1.36
257084,-6.07,-6.05,27.93,1.75,8.73,1.65
257119,-7.30,-6.73,25.18,1.62,8.73,1.86
257154,-8.62,-5.38,23.16,1.51,8.73,2.03
257189,-6.56,-5.36,19.87,1.41,8.73,2.19
257225,-2.65,-6.05,16.38,1.28,8.73,2.34
257259,-0.09,-7.99,15.75,1.09,8.73,2.47
257294,4.31,-6.14,16.21,0.90,8.73,2.47
257330,8.74,-5.86,18.39,0.79,8.73,2.44
257364,11.72,-4.58,20.63,0.75,8.73,2.34
257399,12.54,-5.04,23.37,0.82,8.73,2.27
257434,13.35,-6.40,27.10,0.81,8.73,2.28
257470,11.85,-7.08,30.23,0.74,8.73,2.31
257504,10.19,-7.59,32.90,0.65,8.73,2.36
257539,7.49,-8.28,35.24,0.56,8.73,2.39
257574,3.99,-7.77,35.37,0.37,8.73,2.34
257609,0.73,-6.50,36.45,0.21,8.73,2.19
257644,-3.10,-6.15,34.28,0.08,8.73,2.02
257680,-4.36,-4.34,32.47,-0.09,8.73,1.85
257714,-6.69,-0.63,29.99,-0.12,8.73,1.58
257749,-8.41,0.85,27.64,-0.02,8.73,1.25
257784,-5.56,2.55,24.37,0.19,8.73,0.98
257819,-4.19,6.35,20.79,0.49,8.73,0.84
257854,-1.45,2.67,19.65,0.88,8.73,0.73
257889,-0.12,2.97,19.29,1.18,8.73,0.81
257924,3.68,1.24,18.51,1.46,8.73,1.01
257959,8.13,-1.32,19.93,1.73,8.73,1.24
257994,11.59,-2.63,24.35,1.81,8.73,1.51
258029,12.73,-4.08,27.15,1.83,8.73,1.80
258064,13.78,-6.88,30.32,1.80,8.73,2.03
258099,11.62,-9.57,32.61,1.66,8.73,2.21
258134,8.77,-10.11,35.28,1.45,8.73,2.25
258169,5.40,-9.80,36.92,1.27,8.73,2.20
258204,2.56,-8.44,37.06,1.20,8.73,2.07
258239,-0.88,-7.53,35.78,1.22,8.73,2.00
258274,-3.49,-8.46,34.48,1.31,8.73,1.98
258315,-5.62,-7.77,30.96,1.33,8.73,2.06
258349,-5.84,-7.88,25.62,1.20,8.73,2.12
258385,-4.79,-5.96,23.14,1.02,8.73,2.15
258419,-3.19,-5.36,20.83,0.90,8.73,2.08
258453,-2.20,-4.07,18.40,0.80,8.73,1.85
258488,0.52,-2.23,17.56,0.79,8.73,1.64
258523,6.20,-1.10,17.58,0.90,8.73,1.51
258558,8.84,-1.54,18.24,1.03,8.73,1.46
258593,10.85,-3.22,20.69,1.16,8.73,1.49
258628,12.85,-5.59,22.67,1.09,8.73,1.56
258663,12.06,-5.56,26.47,1.06,8.73,1.58
258698,12.92,-7.16,28.89,1.00,8.73,1.53
258733,12.39,-6.37,31.72,0.99,8.73,1.49
258768,7.97,-5.07,33.73,1.06,8.73,1.44
258803,5.05,-5.97,35.17,1.14,8.73,1.50
258839,2.02,-5.90,35.13,1.22,8.73,1.55
258873,-1.51,-6.90,34.29,1.30,8.73,1.62
258908,-4.05,-6.70,32.05,1.25,8.73,1.71
258943,-4.82,-4.72,28.45,1.22,8.73,1.78
258978,-6.56,-5.35,25.89,1.14,8.73,1.83
259013,-7.10,-5.35,23.53,1.01,8.73,1.85
259048,-6.58,-3.42,21.61,0.97,8.73,1.89
259083,-2.07,-3.19,18.10,0.88,8.73,1.78
259118,0.39,-1.01,16.47,0.91,8.73,1.65
259153,6.38,-2.06,16.03,0.92,8.73,1.66
259188,8.94,-3.64,16.42,0.89,8.73,1.74
259224,10.74,-7.21,18.73,0.70,8.73,1.87
259258,12.37,-7.69,20.52,0.46,8.73,1.87
259293,12.04,-5.49,25.01,0.33,8.73,1.74
259328,11.66,-4.22,27.38,0.44,8.73,1.64
259363,11.57,-4.05,30.42,0.64,8.73,1.75
259398,9.19,-5.94,32.67,0.77,8.73,1.90
259434,5.45,-6.64,34.14,0.77,8.73,1.97
259468,3.22,-5.99,35.45,0.66,8.73,2.00
259504,-0.77,-6.58,34.35,0.55,8.73,1.99
259538,-3.86,-5.57,33.73,0.45,8.73,1.92
259573,-6.49,-3.30,31.94,0.40,8.73,1.81
259608,-5.96,-2.55,27.60,0.45,8.73,1.68
259643,-8.04,-1.58,24.58,0.56,8.73,1.58
259678,-5.32,-1.18,21.69,0.65,8.73,1.50
259713,-3.86,-2.14,18.69,0.77,8.73,1.58
259748,-0.88,-2.91,17.44,0.87,8.73,1.68
259783,2.77,-3.56,17.04,0.88,8.73,1.77
259819,6.72,-2.83,17.41,0.88,8.73,1.78
259853,8.74,-3.67,17.94,0.94,8.73,1.77
259888,10.95,-5.32,20.19,0.96,8.73,1.78
259923,11.97,-3.53,23.65,0.98,8.73,1.81
259958,12.73,-5.60,26.96,1.08,8.73,1.91
259993,11.44,-7.18,29.82,1.12,8.73,2.04
260028,9.06,-6.62,32.77,1.09,8.73,2.20
260063,5.89,-8.26,34.30,0.97,8.73,2.38
260098,3.34,-9.30,35.21,0.76,8.73,2.52
260134,0.11,-7.24,35.82,0.57,8.73,2.42
260168,-3.35,-6.23,34.90,0.63,8.73,2.17
260203,-6.80,-5.14,33.71,0.62,8.73,2.03
260238,-5.69,-3.91,27.74,0.69,8.73,1.99
260273,-6.51,-4.57,24.62,0.79,8.73,1.99
260308,-5.76,-5.04,22.04,0.89,8.73,2.08
260348,-3.44,-6.69,18.36,0.92,8.73,2.25
260384,-0.86,-7.27,16.67,0.84,8.73,2.37
260418,1.80,-6.82,16.18,0.71,8.73,2.30
260453,6.22,-3.01,16.78,0.72,8.73,2.04
260488,9.78,-2.59,18.35,0.84,8.73,1.87
260523,12.53,-3.09,22.10,1.08,8.73,1.77
260558,13.60,-4.68,24.44,1.11,8.73,1.83
260593,12.98,-5.69,27.09,1.14,8.73,1.90
260628,10.84,-6.80,29.67,1.12,8.73,1.97
260663,8.68,-7.03,32.64,1.01,8.73,1.92
260698,5.82,-7.64,34.73,0.92,8.73,1.91
260733,2.95,-7.73,35.54,0.93,8.73,1.89
260768,-0.62,-6.43,36.21,0.93,8.73,1.87
260803,-2.73,-6.06,33.23,0.89,8.73,1.88
260838,-5.50,-5.68,31.13,0.89,8.73,1.82
260873,-6.20,-4.36,27.46,0.85,8.73,1.81
260908,-7.19,-4.51,23.65,0.82,8.73,1.75
260943,-6.00,-2.97,21.35,0.81,8.73,1.71
260978,-4.31,-2.71,18.61,0.87,8.73,1.70
261013,-3.02,-1.18,17.09,0.93,8.73,1.69
261048,1.72,-0.41,15.83,0.98,8.73,1.61
261083,7.12,-1.62,17.33,1.16,8.73,1.54
261118,9.96,0.71,18.43,1.31,8.73,1.52
261153,11.61,-0.40,20.85,1.60,8.73,1.59
261188,12.07,-4.87,23.63,1.68,8.73,1.75
261223,12.90,-5.78,25.97,1.62,8.73,1.93
261258,11.64,-8.70,28.85,1.48,8.73,2.02
261293,11.17,-7.68,32.74,1.26,8.73,1.91
261329,6.25,-6.90,30.71,1.14,8.73,1.79
261363,3.63,-8.05,36.65,1.18,8.73,1.59
261398,0.21,-5.85,35.81,1.25,8.73,1.55
261433,-1.79,-6.33,32.78,1.29,8.73,1.69
261468,-4.55,-6.90,30.92,1.34,8.73,1.76
261503,-6.65,-6.02,28.16,1.20,8.73,1.88
261538,-6.58,-5.87,24.41,1.08,8.73,1.95
261573,-6.36,-4.87,22.61,1.07,8.73,2.05
261608,-5.26,-5.43,19.29,1.02,8.73,2.12
261643,-4.12,-5.88,16.21,0.94,8.73,2.21
261678,-0.58,-6.75,16.57,0.83,8.73,2.22
261713,6.06,-5.81,17.44,0.72,8.73,2.18
261748,9.16,-3.21,18.50,0.66,8.73,2.08
261783,11.58,-4.15,20.55,0.76,8.73,1.92
261818,13.41,-4.68,23.01,0.80,8.73,1.83
261853,13.28,-4.36,24.92,0.85,8.73,1.82
261889,12.45,-4.49,27.90,0.89,8.73,1.84
261923,11.17,-6.11,30.83,0.90,8.73,1.89
261958,8.06,-6.35,33.64,0.92,8.73,1.95
261993,5.00,-6.77,34.34,0.89,8.73,1.95
262028,2.24,-5.74,35.53,0.81,8.73,1.92
262063,-0.95,-5.27,34.19,0.78,8.73,1.84
262097,-4.64,-5.58,32.72,0.82,8.73,1.75
262132,-6.26,-3.47,30.53,0.86,8.73,1.71
262167,-6.75,-5.41,27.20,0.94,8.73,1.73
262202,-7.67,-3.33,24.72,0.98,8.73,1.75
262237,-6.18,-3.47,21.72,0.95,8.73,1.75
262272,-3.94,-1.54,18.64,0.93,8.73,1.63
262307,1.67,0.09,16.74,0.93,8.73,1.48
262342,6.11,0.87,16.95,1.06,8.73,1.41
262382,9.03,-0.79,17.63,1.21,8.73,1.42
262417,10.81,-2.71,18.29,1.26,8.73,1.52
262452,11.98,-5.04,21.13,1.22,8.73,1.65
262487,12.80,-5.09,24.22,1.14,8.73,1.69
262522,13.10,-5.46,27.20,1.07,8.73,1.70
262557,11.24,-6.37,29.64,1.02,8.73,1.68
262592,9.23,-6.65,32.03,1.00,8.73,1.59
262627,5.36,-5.31,33.38,1.01,8.73,1.43
262662,2.68,-5.00,34.25,1.08,8.73,1.43
262697,-0.43,-6.22,34.31,1.23,8.73,1.48
262732,-3.42,-6.34,33.00,1.33,8.73,1.58
262767,-6.08,-6.65,30.84,1.25,8.73,1.71
262802,-6.06,-5.07,26.79,1.12,8.73,1.84
262837,-6.82,-4.57,24.00,1.06,8.73,1.84
262872,-6.04,-4.06,21.83,0.98,8.73,1.86
262907,-3.56,-3.06,18.68,0.99,8.73,1.90
262942,2.01,-3.72,16.23,0.94,8.73,1.91
262977,4.67,-4.76,14.75,0.85,8.73,1.97
263012,6.62,-5.07,14.38,0.76,8.73,2.01
263048,8.77,-3.77,15.35,0.70,8.73,1.95
263082,9.84,-4.02,18.51,0.74,8.73,1.85
263117,11.86,-2.79,21.44,0.83,8.73,1.79
263152,12.40,-4.93,24.57,0.93,8.73,1.79
263187,12.07,-5.42,27.38,0.94,8.73,1.82
263222,9.82,-5.91,29.83,0.92,8.73,1.87
263257,8.07,-7.00,32.66,0.92,8.73,1.87
263292,5.32,-5.07,33.83,0.87,8.73,1.84
263328,1.70,-6.55,34.78,0.78,8.73,1.85
263362,-1.78,-6.16,33.85,0.75,8.73,1.86
263397,-4.42,-4.80,32.24,0.77,8.73,1.82
263432,-4.68,-4.90,27.95,0.75,8.73,1.81
263467,-6.93,-3.62,25.05,0.84,8.73,1.83
263502,-7.15,-3.67,22.92,0.94,8.73,1.88
263537,-6.16,-3.52,19.59,1.06,8.73,2.09
263572,-5.09,-6.86,16.45,1.06,8.73,2.31
263607,-0.69,-6.63,15.27,0.89,8.73,2.43
263642,3.28,-6.34,15.09,0.71,8.73,2.39
263677,7.31,-4.54,16.18,0.63,8.73,2.24
263712,9.49,-2.89,17.35,0.71,8.73,2.03
263747,12.73,-3.41,20.62,0.80,8.73,1.91
263782,12.80,-2.79,24.28,0.88,8.73,1.91
263818,11.52,-4.37,26.24,0.93,8.73,1.96
263852,10.72,-6.43,28.00,0.98,8.73,2.01
263887,9.52,-7.07,32.07,0.89,8.73,1.95
263922,6.47,-5.88,33.98,0.78,8.73,1.81
263957,3.89,-7.25,34.48,0.82,8.73,1.70
263992,-0.89,-5.48,35.35,0.91,8.73,1.59
264027,-2.98,-4.19,33.23,0.96,8.73,1.55
264062,-5.33,-4.52,30.59,0.99,8.73,1.57
264097,-5.88,-4.25,27.14,0.91,8.73,1.61
264132,-6.07,-3.81,24.23,0.74,8.73,1.56
264167,-3.70,-0.42,21.33,0.60,8.73,1.37
264202,-4.50,1.91,19.11,0.65,8.73,1.20
264237,-0.69,2.39,17.00,0.81,8.73,1.08
264272,1.06,1.40,16.28,0.99,8.73,1.10
264307,3.31,0.38,15.94,1.16,8.73,1.24
264342,8.97,-0.20,16.75,1.22,8.73,1.40
264377,10.59,-4.50,19.21,1.26,8.73,1.53
264417,12.67,-4.29,22.53,1.14,8.73,1.63
264453,12.98,-5.17,25.87,1.14,8.73,1.67
264487,12.29,-6.43,28.40,1.05,8.73,1.62
264522,10.03,-6.76,31.56,0.98,8.73,1.50
264557,7.60,-5.63,33.79,1.03,8.73,1.44
264592,5.04,-5.36,35.07,1.12,8.73,1.34
264627,1.30,-6.76,35.32,1.25,8.73,1.48
264662,-1.98,-5.57,33.56,1.27,8.73,1.62
264697,-4.77,-4.93,31.57,1.32,8.73,1.70
264732,-5.89,-5.50,28.63,1.37,8.73,1.80
264767,-6.98,-6.28,25.72,1.41,8.73,1.93
264802,-7.48,-5.85,22.54,1.36,8.73,2.06
264838,-6.74,-6.30,19.33,1.28,8.73,2.21
264872,-2.97,-5.32,16.83,1.08,8.73,2.18
264907,0.06,-4.05,16.05,0.96,8.73,2.07
264942,4.08,-3.44,16.81,0.88,8.73,1.98
264977,7.16,-3.29,16.44,0.82,8.73,1.91
265012,10.25,-4.28,19.76,0.83,8.73,1.87
265047,12.90,-6.17,21.41,0.71,8.73,1.84
265082,12.73,-5.25,23.99,0.66,8.73,1.76
265117,12.00,-4.55,26.89,0.62,8.73,1.68
265152,11.39,-5.15,29.91,0.66,8.73,1.62
265187,9.04,-4.20,33.34,0.72,8.73,1.57
265222,5.42,-4.81,34.30,0.78,8.73,1.58
265257,2.65,-4.62,34.24,0.83,8.73,1.56
265292,-0.26,-4.98,34.06,0.88,8.73,1.55
265328,-2.96,-3.88,32.04,0.94,8.73,1.56
265362,-5.33,-3.69,30.36,0.94,8.73,1.59
265397,-6.57,-3.36,27.59,0.98,8.73,1.61
265432,-6.71,-2.20,24.89,1.01,8.73,1.64
265468,-4.54,-1.75,21.69,1.10,8.73,1.67
265502,-3.12,-2.38,18.14,1.13,8.73,1.69
265537,0.23,0.32,17.49,1.13,8.73,1.54
265572,1.75,1.64,16.65,1.23,8.73,1.34
265607,6.06,3.16,16.60,1.50,8.73,1.15
265642,9.51,1.46,17.63,1.78,8.73,1.23
265677,11.18,-3.68,20.90,1.85,8.73,1.47
265712,12.28,-6.33,23.56,1.65,8.73,1.72
265747,12.80,-7.27,26.23,1.37,8.73,1.85
265782,12.11,-7.96,29.33,1.14,8.73,1.81
265817,10.09,-7.92,32.26,0.98,8.73,1.62
265851,7.86,-5.90,34.14,0.97,8.73,1.42
265886,3.57,-6.11,34.86,1.10,8.73,1.32
265921,0.77,-5.20,34.62,1.29,8.73,1.34
265956,-1.42,-5.64,33.35,1.46,8.73,1.45
265991,-4.41,-6.12,31.09,1.52,8.73,1.57
266026,-6.75,-6.46,28.29,1.52,8.73,1.74
266061,-7.83,-7.24,25.40,1.36,8.73,1.85
266096,-6.29,-4.64,23.36,1.11,8.73,1.81
266131,-4.05,-1.87,20.43,1.04,8.73,1.72
266166,-1.49,-0.45,18.56,1.05,8.73,1.56
266201,1.82,-1.04,16.74,1.09,8.73,1.46
266236,6.41,-0.86,17.10,1.20,8.73,1.46
266271,9.06,-1.53,17.52,1.23,8.73,1.55
266306,10.95,-2.88,19.58,1.25,8.73,1.66
266342,12.02,-4.30,21.67,1.28,8.73,1.74
266377,13.65,-5.20,24.30,1.31,8.73,1.81
266412,12.22,-6.63,27.78,1.23,8.73,1.91
266452,10.58,-6.98,31.66,1.07,8.73,1.95
266486,8.03,-7.22,33.54,0.97,8.73,1.95
266521,4.86,-6.28,34.46,0.91,8.73,1.96
266557,1.15,-8.05,33.51,0.86,8.73,1.98
266591,-1.40,-5.70,34.14,0.76,8.73,1.96
266626,-3.61,-5.64,32.45,0.70,8.73,1.93
266661,-6.11,-5.73,30.11,0.63,8.73,1.93
266696,-7.40,-3.97,26.92,0.50,8.73,1.84
266731,-6.31,-2.19,23.02,0.50,8.73,1.74
266766,-5.43,-1.11,19.43,0.57,8.73,1.73
266801,-3.22,-3.25,16.83,0.65,8.73,1.78
266837,1.28,-3.82,15.94,0.65,8.73,1.88
266872,5.15,-4.89,15.87,0.53,8.73,1.93
266906,7.06,-6.13,16.06,0.42,8.73,1.93
266941,9.59,-5.67,18.08,0.31,8.73,1.81
266976,10.19,-5.45,21.03,0.25,8.73,1.67
267011,11.98,-4.62,24.46,0.26,8.73,1.50
267046,12.84,-4.22,28.08,0.32,8.73,1.32
267081,10.94,-5.06,32.12,0.48,8.73,1.10
267116,8.93,-3.59,35.47,0.60,8.73,0.89
267151,6.07,-3.59,35.75,0.86,8.73,0.84
267186,1.98,-3.94,36.09,1.18,8.73,0.92
267221,-0.47,-3.73,35.09,1.39,8.73,1.03
267256,-4.29,-5.99,33.61,1.35,8.73,1.27
267291,-5.88,-4.99,31.09,1.19,8.73,1.46
267326,-6.81,-4.38,27.82,0.97,8.73,1.51
267361,-6.38,-1.65,24.26,0.80,8.73,1.40
267396,-3.39,2.28,21.24,0.76,8.73,1.24
267431,-1.44,0.90,17.98,0.87,8.73,1.16
267467,2.12,1.91,16.65,1.07,8.73,1.21
267501,4.76,-0.81,16.63,1.16,8.73,1.41
267536,6.50,-2.85,15.52,1.15,8.73,1.64
267571,8.77,-3.70,16.85,1.11,8.73,1.80
267606,11.40,-5.29,20.63,1.12,8.73,1.86
267641,11.94,-4.56,23.86,1.14,8.73,1.91
267676,13.06,-3.27,27.85,1.29,8.73,2.05
267711,11.17,-5.90,30.65,1.27,8.73,2.23
267746,8.11,-8.07,32.52,1.17,8.73,2.31
267781,5.48,-7.48,33.78,1.02,8.73,2.17
267816,3.02,-6.70,34.18,0.95,8.73,2.03
267851,-0.18,-5.12,35.44,1.05,8.73,1.81
267886,-2.76,-5.80,33.06,1.24,8.73,1.73
267921,-5.32,-5.36,29.93,1.32,8.73,1.75
267956,-6.77,-5.76,26.17,1.28,8.73,1.85
267992,-7.25,-5.10,23.15,1.09,8.73,1.87
268027,-5.59,-4.94,20.59,1.00,8.73,1.89
268061,-5.07,-3.15,18.73,0.96,8.73,1.91
268096,-1.45,-3.83,16.75,0.93,8.73,1.93
268131,0.52,-4.33,15.76,0.86,8.73,1.98
268166,3.95,-4.98,15.69,0.79,8.73,2.00
268201,7.81,-4.49,16.88,0.69,8.73,1.97
268236,10.84,-5.42,19.64,0.64,8.73,1.94
268271,12.68,-5.65,23.31,0.60,8.73,1.85
268306,12.96,-5.20,27.30,0.63,8.73,1.76
268342,11.43,-5.37,30.37,0.68,8.73,1.72
268376,10.13,-6.20,32.41,0.70,8.73,1.67
268411,7.62,-4.96,34.28,0.76,8.73,1.64
268446,3.93,-5.90,34.65,0.78,8.73,1.65
268486,0.14,-5.97,34.19,0.83,8.73,1.62
268520,-2.42,-4.60,32.51,0.83,8.73,1.60
268555,-5.46,-4.03,31.46,0.85,8.73,1.60
268590,-6.61,-3.86,29.17,0.84,8.73,1.58
268625,-5.96,-3.13,25.44,0.80,8.73,1.47
268660,-4.98,-0.05,22.60,0.69,8.73,1.26
268695,-4.05,0.85,19.89,0.76,8.73,1.06
268730,-1.61,4.48,18.10,0.95,8.73,0.86
268765,1.98,3.82,16.92,1.22,8.73,0.86
268800,4.99,2.77,17.02,1.49,8.73,0.98
268836,7.99,0.89,17.65,1.74,8.73,1.16
268870,10.42,-1.86,20.54,1.88,8.73,1.41
268905,12.63,-5.19,23.59,1.88,8.73,1.68
268940,13.62,-6.52,26.85,1.76,8.73,1.92
268975,11.86,-8.08,30.51,1.62,8.73,2.10
269010,10.13,-9.09,33.13,1.37,8.73,2.09
269045,8.78,-7.46,35.38,1.23,8.73,2.01
269080,3.39,-8.42,35.89,1.17,8.73,1.93
269115,0.79,-6.85,36.89,1.30,8.73,1.82
269150,-2.85,-7.49,34.85,1.40,8.73,1.84
269185,-5.25,-6.68,32.59,1.52,8.73,1.90
269220,-5.05,-8.28,28.88,1.49,8.73,2.08
269255,-6.14,-6.86,24.75,1.41,8.73,2.20
269290,-5.30,-7.77,21.67,1.26,8.73,2.32
269326,-4.52,-7.13,19.62,1.12,8.73,2.33
269360,-1.05,-7.03,17.94,0.98,8.73,2.35
269395,2.47,-5.94,16.83,0.81,8.73,2.23
269430,6.13,-5.49,16.47,0.73,8.73,2.08
269465,8.63,-3.13,17.83,0.75,8.73,1.93
269500,11.21,-3.94,20.58,0.84,8.73,1.83
269535,12.44,-4.26,23.04,0.91,8.73,1.81
269570,12.62,-3.99,26.62,0.99,8.73,1.83
269605,11.62,-5.95,30.06,1.09,8.73,1.92
269640,9.98,-6.87,32.84,1.07,8.73,1.99
269675,7.72,-7.01,35.02,1.04,8.73,2.00
269710,4.01,-6.41,35.85,0.95,8.73,1.93
269745,0.20,-6.51,35.30,0.93,8.73,1.84
269780,-2.60,-5.78,33.69,0.86,8.73,1.87
269815,-4.93,-5.37,31.27,0.78,8.73,1.88
269850,-6.31,-5.13,28.03,0.60,8.73,1.86
269885,-6.73,-3.31,25.66,0.45,8.73,1.72
269920,-5.39,-0.19,23.32,0.47,8.73,1.63
269955,-4.53,-1.89,20.42,0.61,8.73,1.67
269990,-0.67,-2.67,18.16,0.70,8.73,1.79
270024,2.43,-5.65,15.91,0.64,8.73,2.00
270059,5.58,-5.99,15.69,0.48,8.73,2.13
270094,9.32,-6.73,16.49,0.35,8.73,2.05
270129,11.18,-5.15,19.29,0.26,8.73,1.88
270164,11.86,-4.62,22.23,0.27,8.73,1.69
270199,12.47,-3.48,25.30,0.34,8.73,1.53
270234,12.00,-4.49,28.75,0.51,8.73,1.44
270269,10.60,-5.34,32.81,0.60,8.73,1.34
270304,8.53,-4.32,35.44,0.72,8.73,1.30
270340,4.42,-4.93,35.51,0.86,8.73,1.27
270374,1.47,-4.25,34.68,0.97,8.73,1.24
270408,-1.78,-6.17,35.61,0.98,8.73,1.50
270443,-4.37,-3.24,34.62,0.80,8.73,1.68
270478,-5.55,-4.12,30.48,0.71,8.73,1.65
270518,-5.40,-1.08,27.25,0.68,8.73,1.57
270553,-4.46,0.55,23.62,0.80,8.73,1.54
270588,-3.38,-1.88,20.53,0.95,8.73,1.61
270623,-0.37,-2.80,18.29,0.99,8.73,1.74
270658,2.62,-5.96,15.99,0.93,8.73,2.00
270693,5.70,-5.50,16.25,0.79,8.73,2.22
270728,7.83,-4.37,16.62,0.71,8.73,2.14
270763,11.03,-3.63,19.14,0.79,8.73,1.96
270798,12.90,-1.23,22.96,1.01,8.73,1.85
270833,13.29,-2.51,25.91,1.32,8.73,1.93
270868,11.59,-7.70,28.76,1.32,8.73,2.06
270903,10.30,-7.19,32.08,1.08,8.73,1.97
270939,8.88,-6.39,33.90,0.90,8.73,1.81
270973,5.43,-7.21,33.94,0.90,8.73,1.77
271008,1.63,-5.98,35.64,1.08,8.73,1.68
271043,-0.87,-7.33,35.06,1.04,8.73,1.69
271078,-3.86,-4.66,32.05,0.91,8.73,1.79
271113,-5.77,-4.89,28.95,0.93,8.73,1.79
271148,-6.13,-4.45,25.17,0.92,8.73,1.79
271183,-7.43,-3.03,23.30,0.91,8.73,1.82
271218,-6.56,-2.79,20.94,0.99,8.73,1.91
271253,-2.65,-4.53,18.04,1.01,8.73,1.99
271288,3.10,-3.61,16.22,0.93,8.73,1.92
271324,7.81,-2.60,16.42,0.87,8.73,1.80
271359,8.77,-2.88,15.83,0.88,8.73,1.75
271393,9.47,-4.54,16.95,0.84,8.73,1.76
271428,10.47,-5.31,19.10,0.75,8.73,1.75
271463,10.94,-4.57,23.00,0.66,8.73,1.70
271498,12.49,-5.89,26.61,0.67,8.73,1.63
271533,11.79,-4.76,30.67,0.71,8.73,1.57
271568,8.81,-4.90,33.11,0.79,8.73,1.50
271603,5.38,-5.37,34.53,0.85,8.73,1.39
271638,2.91,-4.61,35.06,0.92,8.73,1.39
271673,-0.05,-5.07,34.04,1.02,8.73,1.42
271708,-3.33,-5.62,32.56,1.09,8.73,1.47
271743,-5.65,-5.49,30.22,1.04,8.73,1.54
271778,-6.50,-3.28,27.26,0.98,8.73,1.58
271813,-7.81,-3.59,24.46,0.94,8.73,1.59
271848,-6.07,-1.08,21.64,0.91,8.73,1.50
271883,-2.51,0.72,18.49,0.94,8.73,1.38
271918,0.33,-0.03,16.40,1.04,8.73,1.33
271954,3.00,-0.80,15.67,1.13,8.73,1.40
271988,5.71,0.07,15.71,1.24,8.73,1.40
272023,8.59,-1.70,16.24,1.33,8.73,1.47
272058,10.16,-4.47,18.62,1.27,8.73,1.62
272093,10.92,-5.48,21.58,1.14,8.73,1.74
272128,12.93,-4.89,25.49,1.08,8.73,1.79
272163,11.64,-5.87,29.28,0.98,8.73,1.80
272199,10.83,-6.02,32.52,0.91,8.73,1.78
272233,8.09,-6.32,34.53,0.93,8.73,1.84
272268,4.04,-6.50,34.18,0.94,8.73,1.78
272303,0.87,-5.35,34.35,0.95,8.73,1.72
272339,-1.58,-4.92,31.79,1.01,8.73,1.63
272373,-4.10,-4.75,30.15,1.09,8.73,1.61
272408,-5.51,-5.92,27.52,1.01,8.73,1.68
272443,-6.78,-4.57,25.13,0.94,8.73,1.71
272478,-7.10,-2.49,21.95,0.90,8.73,1.65
272513,-5.92,-1.02,19.00,0.87,8.73,1.55
272553,0.17,-1.21,16.65,0.93,8.73,1.43
272588,2.08,-0.61,14.46,1.01,8.73,1.44
272623,5.98,0.72,15.89,1.14,8.73,1.42
272658,8.21,-2.49,15.80,1.24,8.73,1.47
272693,9.84,-3.02,17.67,1.29,8.73,1.60
272728,11.07,-3.36,20.05,1.29,8.73,1.73
272763,12.16,-4.98,23.33,1.33,8.73,1.87
272798,11.99,-7.60,26.79,1.25,8.73,1.93
272833,11.34,-7.07,30.97,1.14,8.73,1.98
272868,8.51,-7.94,33.47,1.07,8.73,2.07
272904,5.42,-8.18,33.75,0.99,8.73,2.08
272938,2.22,-7.53,33.24,0.87,8.73,2.08
272973,-0.77,-7.07,33.22,0.82,8.73,2.02
273008,-3.86,-6.59,32.00,0.82,8.73,1.95
273043,-6.08,-5.20,29.67,0.92,8.73,1.92
273078,-6.24,-5.33,25.73,1.03,8.73,1.94
273113,-5.66,-5.60,21.80,1.00,8.73,1.96
273148,-4.43,-4.66,19.48,1.03,8.73,2.03
273183,-3.24,-5.06,15.82,0.95,8.73,1.99
273218,-0.62,-3.93,14.93,0.90,8.73,1.92
273254,0.13,-2.46,13.47,0.84,8.73,1.84
273288,3.06,-1.73,13.68,0.93,8.73,1.69
273324,5.77,-1.99,14.66,1.01,8.73,1.65
273359,9.95,-1.89,17.68,1.15,8.73,1.64
273393,12.42,-2.62,20.70,1.29,8.73,1.69
273428,12.80,-5.20,23.86,1.29,8.73,1.78
273463,11.86,-6.94,26.91,1.24,8.73,1.87
273498,10.56,-7.34,30.15,1.13,8.73,1.90
273533,7.57,-7.18,32.55,1.07,8.73,1.83
273568,4.95,-6.06,33.51,1.05,8.73,1.75
273603,1.95,-5.86,34.06,1.07,8.73,1.65
273638,-1.14,-5.88,32.69,1.17,8.73,1.61
273673,-4.16,-5.87,31.43,1.27,8.73,1.61
273708,-4.07,-6.32,28.32,1.27,8.73,1.69
273743,-7.56,-5.59,25.98,1.21,8.73,1.81
273778,-8.61,-6.01,22.68,1.14,8.73,1.89
273813,-5.20,-3.55,20.18,1.08,8.73,1.89
273848,-5.06,-3.82,16.93,0.95,8.73,1.84
273883,-1.23,-3.60,15.66,0.93,8.73,1.83
273918,3.71,-2.52,15.31,0.91,8.73,1.78
273953,7.23,-1.67,15.42,0.96,8.73,1.64
273988,9.85,-1.29,16.22,1.09,8.73,1.57
274023,10.43,-2.57,18.73,1.21,8.73,1.59
274058,10.99,-4.09,20.92,1.21,8.73,1.68
274093,12.46,-4.68,24.23,1.19,8.73,1.74
274128,11.62,-5.79,27.51,1.14,8.73,1.77
274162,10.61,-5.98,30.82,1.06,8.73,1.79
274196,7.80,-5.68,32.46,1.02,8.73,1.76
274231,4.74,-5.89,32.81,1.03,8.73,1.73
274266,1.52,-5.46,33.10,1.05,8.73,1.70
274301,-1.19,-5.04,31.99,1.09,8.73,1.70
274336,-4.43,-5.20,31.41,1.14,8.73,1.69
274371,-7.63,-4.91,29.97,1.20,8.73,1.75
274406,-6.34,-5.28,25.64,1.12,8.73,1.83
274441,-7.24,-3.68,22.19,1.02,8.73,1.84
274476,-6.74,-3.30,19.07,0.84,8.73,1.78
274511,-2.87,-1.49,16.79,0.81,8.73,1.74
274546,0.24,-2.14,14.82,0.80,8.73,1.73
274586,2.97,-3.65,14.02,0.70,8.73,1.82
274621,5.01,-5.31,13.98,0.58,8.73,1.92
274656,7.33,-6.32,14.87,0.40,8.73,1.94
274691,10.41,-4.97,18.50,0.27,8.73,1.83
274726,11.56,-3.41,22.41,0.28,8.73,1.66
274761,12.81,-3.87,25.16,0.44,8.73,1.52
274796,11.66,-4.02,28.96,0.58,8.73,1.47
274831,9.50,-5.00,30.94,0.69,8.73,1.42
274866,7.40,-4.23,33.51,0.80,8.73,1.43
274901,4.11,-4.77,33.96,0.89,8.73,1.43
274936,1.07,-3.76,34.58,1.04,8.73,1.40
274971,-2.36,-4.65,33.84,1.19,8.73,1.43
275006,-5.39,-4.43,32.02,1.23,8.73,1.56
275041,-5.81,-4.06,28.34,1.24,8.73,1.69
275076,-5.35,-3.79,23.80,1.19,8.73,1.74
275111,-5.30,-2.71,21.05,1.15,8.73,1.80
275146,-4.39,-3.41,18.43,1.15,8.73,1.89
275181,-2.20,-3.69,16.36,1.10,8.73,1.94
275216,1.07,-3.79,14.60,1.04,8.73,2.01
275251,4.36,-2.76,15.05,0.98,8.73,2.01
275286,7.17,-2.48,16.09,1.00,8.73,1.97
275322,10.06,-2.70,18.20,1.04,8.73,1.93
275356,12.45,-2.88,21.62,1.12,8.73,1.93
275391,12.69,-3.85,24.70,1.17,8.73,1.98
275426,11.69,-5.66,26.98,1.15,8.73,2.09
275461,10.47,-6.68,29.54,1.07,8.73,2.18
275496,8.65,-7.55,31.13,0.96,8.73,2.20
275531,6.09,-6.40,33.20,0.82,8.73,2.18
275566,2.95,-6.39,34.70,0.70,8.73,2.12
275600,-0.72,-5.72,35.26,0.67,8.73,1.98
275634,-3.78,-5.74,32.99,0.69,8.73,1.89
275669,-5.90,-3.38,30.53,0.78,8.73,1.80
275704,-6.08,-3.00,26.17,0.95,8.73,1.79
275739,-6.88,-4.71,23.39,1.09,8.73,1.86
275774,-4.27,-4.87,21.01,1.12,8.73,1.97
275809,-3.18,-5.10,17.89,1.09,8.73,2.11
275845,-1.39,-4.74,16.38,1.00,8.73,2.11
275879,1.68,-3.27,15.38,0.92,8.73,2.02
275914,4.57,-3.00,14.87,0.93,8.73,1.90
275950,8.12,-2.25,16.55,1.00,8.73,1.83
275984,10.35,-3.98,19.76,1.04,8.73,1.86
276019,11.87,-5.25,23.18,1.05,8.73,1.89
276054,12.61,-5.18,26.32,1.01,8.73,1.90
276089,11.67,-6.64,29.65,1.03,8.73,1.96
276124,9.51,-6.65,32.16,0.97,8.73,2.02
276159,8.18,-7.13,34.73,0.92,8.73,2.00
276194,4.02,-7.49,35.88,0.88,8.73,1.91
276229,0.87,-6.03,35.23,0.85,8.73,1.91
276265,-2.38,-6.02,33.87,0.84,8.73,1.87
276299,-5.05,-4.84,31.89,0.82,8.73,1.83
276335,-5.64,-4.49,27.97,0.83,8.73,1.80
276369,-6.75,-4.06,24.69,0.78,8.73,1.74
276404,-4.58,-2.44,21.72,0.81,8.73,1.72
276439,-4.49,-2.75,18.35,0.83,8.73,1.70
276474,-5.07,-2.24,17.23,0.87,8.73,1.69
276509,1.04,-2.66,16.55,0.87,8.73,1.67
276544,5.81,-2.32,16.66,0.92,8.73,1.68
276579,8.46,-2.48,17.40,0.93,8.73,1.74
276619,11.27,-3.99,20.27,0.96,8.73,1.73
276654,12.11,-3.52,22.51,0.96,8.73,1.75
276689,11.77,-5.64,25.87,0.99,8.73,1.77
276724,12.20,-5.88,29.02,1.01,8.73,1.81
276759,10.52,-6.68,32.45,0.99,8.73,1.82
276794,7.95,-6.33,34.34,0.96,8.73,1.81
276829,4.92,-6.97,35.55,0.95,8.73,1.83
276865,1.07,-6.97,35.42,0.97,8.73,1.82
276899,-1.93,-5.72,34.23,1.03,8.73,1.79
276934,-4.22,-5.09,32.05,1.08,8.73,1.79
276969,-5.69,-5.62,29.34,1.16,8.73,1.84
277004,-7.39,-5.10,26.43,1.17,8.73,1.89
277039,-7.55,-5.33,22.99,1.18,8.73,2.00
277074,-5.61,-4.90,19.94,1.11,8.73,2.10
277109,-2.24,-5.53,17.54,1.04,8.73,2.11
277144,1.37,-3.94,16.60,0.93,8.73,2.05
277179,5.44,-3.15,17.00,0.87,8.73,1.93
277214,8.55,-3.44,16.60,0.87,8.73,1.91
277249,10.53,-4.43,19.11,0.88,8.73,1.86
277284,11.97,-4.93,22.43,0.85,8.73,1.84
277320,12.71,-5.07,25.47,0.80,8.73,1.81
277354,13.03,-5.66,28.06,0.74,8.73,1.76
277389,10.99,-5.77,31.06,0.75,8.73,1.72
277424,8.80,-6.26,33.72,0.76,8.73,1.67
277459,5.54,-6.36,34.49,0.76,8.73,1.69
277494,2.12,-6.70,34.73,0.79,8.73,1.73
277529,-0.98,-6.02,35.65,0.78,8.73,1.73
277564,-3.97,-4.85,33.98,0.81,8.73,1.69
277599,-6.23,-4.92,32.02,0.84,8.73,1.66
277634,-8.32,-3.45,29.51,0.88,8.73,1.63
277669,-4.95,-3.62,24.55,0.83,8.73,1.57
277704,-3.27,-0.94,20.58,0.82,8.73,1.45
277739,-1.36,1.24,18.03,0.92,8.73,1.30
277774,1.93,1.51,16.93,1.05,8.73,1.16
277809,3.93,1.38,16.73,1.23,8.73,1.15
277845,6.36,-0.88,17.48,1.39,8.73,1.28
277879,9.65,-1.48,17.73,1.47,8.73,1.47
277914,11.76,-3.63,21.28,1.53,8.73,1.68
277949,12.92,-5.37,24.83,1.51,8.73,1.83
277984,13.52,-7.66,27.26,1.37,8.73,1.92
278019,11.31,-7.80,29.56,1.22,8.73,1.95
278054,8.18,-7.92,30.79,1.08,8.73,1.91
278090,5.84,-8.64,33.08,1.04,8.73,1.88
278125,2.95,-7.51,36.26,1.01,8.73,1.93
278159,-0.65,-7.80,36.79,0.95,8.73,2.00
278194,-2.43,-7.66,33.62,0.88,8.73,2.07
278229,-5.16,-5.37,30.85,0.79,8.73,2.04
278264,-6.04,-5.42,27.38,0.81,8.73,1.99
278299,-5.47,-4.83,23.61,0.76,8.73,1.91
278334,-3.90,-3.98,20.15,0.81,8.73,1.93
278369,-3.66,-4.51,17.66,0.82,8.73,1.97
278404,-0.64,-3.99,16.21,0.78,8.73,1.96
278439,1.79,-4.06,15.36,0.72,8.73,1.86
278474,5.20,-3.28,15.28,0.70,8.73,1.77
278509,9.05,-2.84,17.15,0.73,8.73,1.70
278544,11.91,-3.37,20.06,0.80,8.73,1.62
278579,13.35,-4.00,22.46,0.90,8.73,1.58
278614,13.26,-4.43,25.29,0.99,8.73,1.58
278654,11.01,-4.75,28.37,1.04,8.73,1.62
278689,9.30,-6.21,31.08,1.05,8.73,1.63
278724,7.33,-6.04,33.87,1.08,8.73,1.56
278759,4.02,-6.86,34.60,1.10,8.73,1.50
278794,0.64,-4.79,36.44,1.26,8.73,1.43
278830,-2.20,-6.52,34.40,1.38,8.73,1.52
278864,-5.82,-5.34,32.82,1.39,8.73,1.68
278899,-6.38,-6.14,28.82,1.35,8.73,1.85
278934,-6.03,-4.65,24.72,1.39,8.73,1.99
278969,-4.78,-6.28,20.01,1.43,8.73,2.17
279004,-3.06,-7.18,17.26,1.34,8.73,2.36
279039,-1.24,-7.59,15.90,1.17,8.73,2.51
279074,0.32,-7.17,14.87,0.95,8.73,2.51
279109,3.38,-4.47,15.81,0.83,8.73,2.36
279143,7.62,-4.12,17.00,0.82,8.73,2.21
279178,10.77,-5.11,19.53,0.76,8.73,2.15
279213,12.63,-5.57,23.12,0.67,8.73,2.10
279248,12.87,-6.61,26.54,0.60,8.73,2.04
279283,12.62,-6.60,29.16,0.56,8.73,1.98
279318,10.44,-6.76,32.35,0.56,8.73,1.98
279354,8.12,-6.27,34.42,0.53,8.73,2.05
279388,4.70,-6.76,34.99,0.42,8.73,2.17
279423,1.03,-7.35,34.54,0.21,8.73,2.25
279458,-1.01,-5.63,34.13,-0.04,8.73,2.12
279493,-5.01,-2.83,33.25,-0.14,8.73,1.88
279528,-6.58,-1.41,31.15,-0.05,8.73,1.56
279564,-7.37,-0.22,27.24,0.09,8.73,1.32
279598,-5.16,1.53,23.46,0.26,8.73,1.13
279633,-4.08,1.40,20.09,0.48,8.73,0.97
279668,-1.67,3.36,17.83,0.69,8.73,0.75
279703,1.23,2.66,17.50,0.98,8.73,0.72
279738,3.80,0.56,16.71,1.22,8.73,0.97
279773,5.97,-3.24,18.04,1.27,8.73,1.35
279808,9.66,-4.36,20.37,1.22,8.73,1.60
279843,12.12,-4.49,24.53,1.29,8.73,1.71
279878,13.64,-5.23,28.12,1.40,8.73,1.89
279913,12.12,-8.20,32.40,1.47,8.73,2.12
279948,10.60,-9.64,34.18,1.25,8.73,2.15
279983,8.11,-8.41,34.56,1.11,8.73,2.13
280018,3.31,-9.05,35.96,0.99,8.73,2.04
280053,0.70,-7.34,36.59,0.99,8.73,1.87
280088,-2.29,-8.23,33.19,1.00,8.73,1.85
280123,-4.88,-5.92,31.85,0.94,8.73,1.82
280158,-6.33,-7.74,28.81,0.91,8.73,1.80
280193,-6.25,-3.91,24.49,0.77,8.73,1.68
280228,-5.35,-2.58,21.35,0.79,8.73,1.57
280263,-3.16,-1.18,19.12,0.84,8.73,1.42
280298,-0.45,0.83,17.19,0.99,8.73,1.22
280334,2.21,1.33,17.14,1.21,8.73,1.06
280368,4.54,1.12,16.88,1.50,8.73,1.07
280403,7.57,-0.23,18.21,1.84,8.73,1.22
280438,10.73,-2.57,22.04,1.99,8.73,1.57
280473,13.02,-7.23,26.67,1.93,8.73,1.95
280508,14.33,-9.43,29.63,1.80,8.73,2.26
280543,11.63,-10.57,32.22,1.63,8.73,2.50
280578,9.17,-11.63,33.97,1.29,8.73,2.63
280613,6.41,-11.38,35.15,1.01,8.73,2.67
280648,2.12,-10.48,37.24,0.64,8.73,2.70
280688,-1.40,-9.32,37.73,0.38,8.73,2.52
280724,-4.60,-10.17,36.28,0.15,8.73,2.34
280758,-6.68,-5.60,33.58,-0.32,8.73,2.07
280793,-6.75,-0.71,29.69,-0.36,8.73,1.68
280829,-5.20,-0.31,26.66,-0.22,8.73,1.28
280863,-3.72,1.92,23.68,0.20,8.73,1.04
280898,-1.39,2.98,20.81,0.57,8.73,0.96
280933,1.99,0.29,21.26,0.92,8.73,0.91
280968,7.02,2.18,22.49,1.22,8.73,1.06
281003,8.89,-0.52,23.45,1.56,8.73,1.22
281039,12.30,-2.66,27.67,1.77,8.73,1.52
281073,14.95,-6.90,31.26,1.88,8.73,1.84
281108,13.13,-10.60,35.08,1.90,8.73,2.19
281143,10.83,-10.81,37.36,1.66,8.73,2.33
281178,7.69,-10.72,38.39,1.39,8.73,2.44
281213,3.30,-10.23,38.71,1.10,8.73,2.57
281248,-0.30,-13.68,36.93,0.94,8.73,2.53
281283,-2.57,-9.58,35.11,0.68,8.73,2.51
281319,-6.15,-7.77,33.72,0.45,8.73,2.33
281353,-6.96,-6.89,30.13,0.32,8.73,2.17
281388,-6.05,-4.29,25.69,0.24,8.73,1.82
281423,-2.51,-0.43,21.44,0.22,8.73,1.56
281458,-6.10,-0.17,18.55,0.36,8.73,1.28
281493,1.45,0.16,18.84,0.54,8.73,1.08
281528,3.02,-1.20,18.15,0.63,8.73,1.18
281563,8.28,-6.07,19.13,0.72,8.73,1.39
281598,13.76,-5.99,21.68,0.54,8.73,1.52
281633,13.93,-6.18,24.47,0.61,8.73,1.49
281668,13.01,-5.19,24.72,0.68,8.73,1.35
281703,12.12,-3.34,26.70,0.82,8.73,1.34
281738,10.72,-5.12,29.20,1.05,8.73,1.48
281773,8.17,-6.24,31.43,1.12,8.73,1.62
281808,4.64,-8.06,32.51,1.09,8.73,1.84
281843,2.07,-8.15,33.11,0.98,8.73,2.03
281878,-0.66,-8.32,31.40,0.83,8.73,2.12
281913,-3.63,-7.26,31.50,0.57,8.73,2.13
281948,-4.79,-6.49,28.33,0.44,8.73,2.07
281982,-6.72,-4.53,25.59,0.26,8.73,1.91
282016,-6.71,-1.81,24.06,0.29,8.73,1.76
282051,-4.68,-3.43,19.56,0.39,8.73,1.69
282085,-4.48,-2.87,16.18,0.53,8.73,1.73
282120,-1.30,-4.49,15.00,0.63,8.73,1.89
282155,2.82,-6.34,13.68,0.55,8.73,1.96
282190,5.13,-5.23,12.09,0.45,8.73,1.96
282225,7.18,-3.04,13.21,0.42,8.73,1.82
282260,9.30,-3.15,16.25,0.55,8.73,1.66
282295,10.95,-3.34,18.86,0.66,8.73,1.58
282330,11.58,-2.98,22.59,0.83,8.73,1.56
282365,12.21,-4.56,25.45,0.92,8.73,1.62
282400,11.19,-4.40,27.30,1.00,8.73,1.69
282435,7.82,-7.62,29.18,0.97,8.73,1.75
282470,5.82,-6.43,31.46,0.93,8.73,1.72
282505,3.34,-7.36,32.91,0.91,8.73,1.83
282540,0.21,-6.51,32.12,0.90,8.73,1.84
282575,-2.44,-6.09,29.86,0.85,8.73,1.81
282610,-5.29,-4.85,29.17,0.72,8.73,1.85
282645,-6.27,-3.61,26.09,0.70,8.73,1.81
282680,-6.34,-4.16,23.23,0.66,8.73,1.74
282720,-4.52,-2.03,19.49,0.67,8.73,1.67
282755,-3.99,-1.70,16.29,0.70,8.73,1.64
282790,-2.13,-2.65,14.40,0.74,8.73,1.66
282826,0.83,-4.23,13.47,0.73,8.73,1.79
282860,3.39,-3.48,13.20,0.65,8.73,1.86
282895,6.26,-3.83,13.86,0.60,8.73,1.86
282930,9.06,-2.85,16.30,0.63,8.73,1.76
282965,12.27,-3.26,18.84,0.78,8.73,1.66
283000,11.59,-3.50,20.78,0.83,8.73,1.69
283035,11.92,-4.55,25.55,1.04,8.73,1.74
283070,11.57,-5.73,28.44,1.03,8.73,1.83
283105,9.07,-5.11,30.35,0.98,8.73,1.86
283140,6.47,-6.21,31.39,0.94,8.73,1.91
283175,3.61,-6.83,32.22,0.85,8.73,1.94
283210,0.25,-6.54,32.99,0.74,8.73,2.02
283245,-2.79,-6.62,31.68,0.62,8.73,2.04
283279,-4.69,-5.25,30.00,0.50,8.73,2.01
283315,-5.59,-3.32,26.11,0.42,8.73,1.90
283350,-6.05,-2.02,22.52,0.44,8.73,1.78
283385,-6.12,-1.14,20.06,0.56,8.73,1.75
283419,-5.90,-3.55,16.89,0.76,8.73,1.97
283454,-2.41,-7.04,14.84,0.74,8.73,2.20
283489,-1.15,-7.08,12.57,0.60,8.73,2.45
283524,2.99,-8.99,13.41,0.36,8.73,2.51
283559,6.90,-7.33,13.78,0.13,8.73,2.36
283594,8.95,-5.34,14.89,-0.02,8.73,2.15
283629,9.94,-4.44,17.96,0.05,8.73,1.85
283664,12.59,-2.47,20.85,0.16,8.73,1.63
283699,12.04,-2.97,24.43,0.33,8.73,1.51
283734,11.92,-4.45,27.60,0.50,8.73,1.46
283769,10.58,-4.67,30.89,0.58,8.73,1.35
283804,7.13,-4.42,32.03,0.70,8.73,1.26
283840,3.82,-3.42,33.46,0.81,8.73,1.18
283874,0.85,-3.60,33.45,1.01,8.73,1.11
283909,-2.18,-3.79,33.00,1.21,8.73,1.16
283944,-4.48,-4.13,31.61,1.32,8.73,1.29
283979,-5.15,-4.11,27.16,1.39,8.73,1.43
284013,-6.28,-4.68,23.52,1.32,8.73,1.53
284047,-5.80,-3.49,20.08,1.18,8.73,1.54
284082,-4.70,-1.39,17.23,1.09,8.73,1.50
284117,-2.75,0.84,16.10,1.07,8.73,1.37
284152,-0.25,1.74,14.14,1.14,8.73,1.27
284187,2.58,2.05,14.32,1.30,8.73,1.18
284222,5.61,0.78,14.45,1.47,8.73,1.27
284258,8.70,0.28,15.58,1.60,8.73,1.40
284292,10.42,-1.91,18.89,1.73,8.73,1.59
284328,11.63,-4.78,20.93,1.70,8.73,1.80
284362,12.06,-5.70,23.26,1.57,8.73,1.98
284397,11.59,-7.73,26.48,1.34,8.73,2.03
284432,10.06,-8.43,29.88,1.08,8.73,1.87
284467,7.61,-7.14,32.02,0.98,8.73,1.63
284502,4.72,-5.74,32.84,1.03,8.73,1.42
284537,1.71,-5.58,33.32,1.19,8.73,1.25
284572,-1.09,-6.16,31.79,1.29,8.73,1.29
284608,-3.93,-7.17,30.03,1.25,8.73,1.44
284642,-5.85,-5.78,27.46,1.02,8.73,1.59
284677,-6.36,-3.36,24.44,0.89,8.73,1.58
284712,-5.92,-0.72,20.93,0.85,8.73,1.50
284752,-3.09,-2.07,17.64,0.86,8.73,1.48
284787,-1.79,-0.94,14.20,0.95,8.73,1.54
284822,-0.80,-2.35,12.31,0.98,8.73,1.60
284857,0.59,-3.59,12.23,0.96,8.73,1.66
284892,4.63,-2.86,11.90,0.93,8.73,1.75
284928,7.69,-1.67,12.45,0.97,8.73,1.73
284962,8.93,-3.55,16.53,1.06,8.73,1.73
284997,12.28,-3.55,19.39,1.08,8.73,1.75
285032,12.77,-5.65,21.86,1.12,8.73,1.83
285067,11.67,-6.21,24.59,1.05,8.73,1.88
285102,10.76,-7.15,27.57,0.98,8.73,1.94
285137,8.38,-7.05,29.48,0.89,8.73,1.93
285172,5.19,-7.15,30.98,0.80,8.73,1.99
285207,2.69,-6.33,31.79,0.66,8.73,2.05
285242,-0.54,-5.99,31.62,0.50,8.73,2.04
285277,-3.39,-5.19,30.03,0.34,8.73,1.96
285312,-5.20,-3.75,27.80,0.27,8.73,1.77
285347,-5.68,-1.65,25.19,0.27,8.73,1.58
285382,-6.04,-1.48,22.07,0.30,8.73,1.39
285417,-6.39,0.60,19.86,0.40,8.73,1.24
285452,-4.12,0.61,16.07,0.56,8.73,1.13
285487,-1.98,0.78,14.24,0.76,8.73,1.09
285522,0.87,1.16,13.18,0.92,8.73,1.06
285557,3.29,0.68,13.78,1.09,8.73,1.05
285592,6.26,0.95,14.34,1.31,8.73,1.08
285627,9.90,-0.48,16.59,1.53,8.73,1.16
285662,12.32,-2.65,18.51,1.68,8.73,1.35
285697,12.16,-5.11,20.33,1.66,8.73,1.60
285731,12.77,-7.41,22.97,1.46,8.73,1.80
285766,11.32,-8.15,26.57,1.34,8.73,1.94
285801,9.12,-7.68,29.21,1.19,8.73,2.00
285837,7.28,-8.01,31.10,1.06,8.73,2.10
285871,3.33,-8.44,31.74,0.89,8.73,2.20
285906,0.38,-8.60,31.70,0.72,8.73,2.20
285941,-2.83,-7.51,31.67,0.59,8.73,2.15
285976,-4.93,-6.42,30.44,0.51,8.73,2.07
286011,-5.53,-5.32,26.86,0.46,8.73,1.97
286046,-5.56,-6.42,22.57,0.43,8.73,1.85
286081,-6.91,-4.17,20.62,0.37,8.73,1.74
286116,-5.19,-2.64,17.59,0.41,8.73,1.63
286151,-2.59,-1.76,14.40,0.43,8.73,1.49
286186,0.17,-3.14,11.65,0.51,8.73,1.62
286221,4.89,-4.66,12.84,0.47,8.73,1.72
286256,6.29,-6.75,11.51,0.33,8.73,1.82
286291,7.26,-6.49,12.42,0.12,8.73,1.85
286327,9.45,-4.06,15.28,0.14,8.73,1.69
286361,10.88,-2.02,18.65,0.41,8.73,1.56
286396,11.12,-1.84,22.62,0.78,8.73,1.55
286431,12.22,-4.43,25.23,1.04,8.73,1.68
286466,10.86,-7.04,27.57,1.07,8.73,1.79
286501,8.47,-6.86,29.83,0.96,8.73,1.75
286536,4.71,-6.67,30.50,0.88,8.73,1.68
286571,2.78,-6.42,32.71,0.93,8.73,1.46
286606,-0.12,-5.80,31.67,1.00,8.73,1.39
286641,-3.22,-6.98,29.51,0.91,8.73,1.47
286676,-6.24,-6.22,27.27,0.62,8.73,1.51
286711,-6.76,-4.88,24.43,0.35,8.73,1.43
286746,-7.47,-1.08,22.49,0.21,8.73,1.20
286786,-6.13,1.70,19.36,0.27,8.73,0.96
286822,-4.30,2.05,17.05,0.57,8.73,0.95
286856,-1.53,1.05,14.38,0.85,8.73,1.02
286891,0.35,-0.63,12.44,1.02,8.73,1.14
286926,5.60,-1.13,13.76,1.19,8.73,1.25
286961,8.67,-0.46,14.47,1.34,8.73,1.32
286996,9.69,-0.61,15.98,1.55,8.73,1.48
287031,10.51,-3.18,18.92,1.74,8.73,1.70
287066,12.02,-4.45,21.88,1.85,8.73,2.01
287101,12.31,-7.29,25.50,1.82,8.73,2.37
287136,10.32,-11.44,29.40,1.59,8.73,2.61
287171,8.75,-12.05,32.96,1.21,8.73,2.65
287206,5.21,-10.58,34.12,0.91,8.73,2.55
287241,2.28,-10.66,34.37,0.66,8.73,2.44
287276,-1.71,-9.98,35.36,0.44,8.73,2.40
287311,-3.97,-9.41,33.44,-0.00,8.73,2.39
287347,-6.61,-5.45,30.80,-0.26,8.73,2.11
287381,-7.22,-2.61,27.35,-0.35,8.73,1.71
287416,-7.08,1.66,24.76,-0.30,8.73,1.30
287451,-6.17,1.41,20.62,0.00,8.73,0.96
287486,-2.96,4.95,18.79,0.34,8.73,0.75
287521,1.70,5.57,19.11,0.71,8.73,0.67
287556,6.79,2.40,18.90,1.15,8.73,0.66
287591,9.30,2.73,19.36,1.47,8.73,0.84
287626,12.27,-3.89,23.22,1.68,8.73,1.11
287661,13.56,-5.72,26.17,1.70,8.73,1.38
287695,13.75,-8.76,28.70,1.47,8.73,1.52
287729,11.66,-10.79,30.95,1.33,8.73,1.51
287764,9.22,-7.07,32.99,1.17,8.73,1.41
287799,7.36,-7.34,32.64,1.23,8.73,1.36
287835,4.05,-7.59,32.69,1.28,8.73,1.45
287869,0.13,-9.22,33.47,1.29,8.73,1.65
287904,-2.74,-9.10,31.15,1.11,8.73,1.91
287939,-4.81,-7.31,29.11,0.81,8.73,1.99
287974,-5.82,-5.10,26.24,0.66,8.73,1.91
288009,-5.44,-5.22,21.99,0.59,8.73,1.78
288044,-6.83,-3.31,20.18,0.70,8.73,1.72
288079,-6.69,-3.53,17.83,0.73,8.73,1.65
288114,-4.59,-2.02,15.41,0.71,8.73,1.45
288149,0.76,-0.07,14.61,0.78,8.73,1.24
288184,4.31,0.65,14.63,0.93,8.73,1.15
288219,6.59,-1.43,14.60,1.08,8.73,1.19
288254,8.60,-2.21,16.83,1.19,8.73,1.33
288289,10.74,-4.39,19.42,1.22,8.73,1.45
288324,12.45,-6.24,22.60,1.21,8.73,1.54
288359,13.36,-6.17,25.14,1.15,8.73,1.62
288394,11.91,-6.55,28.04,1.16,8.73,1.72
288429,8.88,-6.80,29.97,1.10,8.73,1.72
288464,6.50,-7.40,30.91,1.04,8.73,1.78
288499,3.05,-7.66,32.23,0.98,8.73,1.87
288535,0.00,-7.69,32.35,0.92,8.73,1.89
288569,-2.45,-7.32,30.73,0.81,8.73,1.92
288604,-4.98,-6.16,29.35,0.68,8.73,1.89
288639,-5.88,-5.86,26.48,0.52,8.73,1.82
288674,-6.24,-4.50,23.20,0.35,8.73,1.66
288709,-6.49,-2.00,20.73,0.20,8.73,1.37
288744,-6.04,1.13,18.52,0.29,8.73,1.20
288779,-3.92,1.24,16.65,0.48,8.73,1.05
288819,0.60,0.64,14.41,0.73,8.73,1.04
288854,3.63,-0.72,14.50,0.90,8.73,1.09
288889,5.49,0.11,14.56,1.07,8.73,1.15
288924,7.57,-1.52,16.05,1.23,8.73,1.23
288959,10.72,-3.22,19.80,1.41,8.73,1.34
288994,12.82,-3.51,23.31,1.49,8.73,1.48
289029,12.84,-4.72,26.94,1.56,8.73,1.67
289064,11.14,-6.78,29.00,1.52,8.73,1.81
289099,9.10,-8.20,30.36,1.42,8.73,1.84
289134,6.18,-7.52,31.47,1.34,8.73,1.78
289169,3.19,-7.52,31.97,1.37,8.73,1.74
289204,-0.81,-7.26,33.56,1.50,8.73,1.68
289239,-3.06,-7.20,31.24,1.64,8.73,1.74
289274,-5.52,-6.30,28.28,1.70,8.73,1.90
289309,-7.43,-7.43,25.57,1.86,8.73,2.11
289345,-8.54,-9.66,22.87,1.89,8.73,2.41
289379,-6.57,-9.67,19.56,1.67,8.73,2.69
289414,-5.46,-10.64,15.93,1.40,8.73,2.88
289449,-2.41,-9.02,14.59,1.05,8.73,2.89
289484,0.02,-7.57,13.51,0.71,8.73,2.70
289519,3.34,-7.51,14.28,0.45,8.73,2.60
289554,6.92,-6.11,14.98,0.25,8.73,2.41
289589,10.06,-6.50,16.14,0.15,8.73,2.16
289624,11.54,-4.94,20.34,0.08,8.73,1.92
289659,11.90,-3.79,23.46,0.14,8.73,1.69
289694,12.76,-3.67,26.46,0.31,8.73,1.53
289729,11.65,-3.05,29.80,0.47,8.73,1.44
289764,8.81,-2.85,32.93,0.65,8.73,1.44
289799,5.68,-4.31,34.40,0.80,8.73,1.47
289834,3.56,-3.29,35.58,0.89,8.73,1.41
289869,-0.31,-4.40,35.40,1.02,8.73,1.38
289904,-2.80,-3.39,33.13,1.16,8.73,1.42
289939,-4.56,-1.09,29.76,1.35,8.73,1.48
289974,-6.85,-3.20,28.11,1.44,8.73,1.57
290009,-7.44,-3.22,24.35,1.47,8.73,1.72
290044,-4.56,-2.99,20.85,1.40,8.73,1.79
290079,-4.35,-1.89,16.99,1.31,8.73,1.82
290114,-1.50,-1.99,14.68,1.25,8.73,1.79
290149,1.98,-2.21,14.95,1.21,8.73,1.82
290184,5.92,-2.87,14.31,1.19,8.73,1.82
290219,8.38,-2.68,14.52,1.16,8.73,1.88
290254,9.45,-2.65,17.23,1.16,8.73,1.93
290289,11.43,-3.39,20.46,1.20,8.73,1.99
290324,12.57,-5.81,24.71,1.15,8.73,2.09
290359,11.00,-7.73,26.70,1.07,8.73,2.16
290394,9.86,-7.84,30.07,0.84,8.73,2.05
290429,8.48,-7.13,32.90,0.73,8.73,1.85
290464,4.81,-5.30,32.47,0.68,8.73,1.77
290499,1.69,-4.56,34.25,0.70,8.73,1.68
290534,-1.23,-5.55,32.90,0.68,8.73,1.59
290570,-4.46,-5.61,31.79,0.58,8.73,1.64
290604,-6.24,-3.26,29.53,0.56,8.73,1.55
290639,-6.37,-2.51,26.29,0.55,8.73,1.46
290674,-6.39,-0.25,22.69,0.67,8.73,1.37
290709,-4.29,-1.05,19.20,0.74,8.73,1.30
290744,-3.55,1.27,16.95,0.86,8.73,1.27
290779,-0.15,0.66,15.13,1.01,8.73,1.21
290815,2.63,0.58,15.03,1.17,8.73,1.20
290854,5.52,0.20,15.27,1.39,8.73,1.21
290889,8.33,-1.35,16.46,1.53,8.73,1.39
290924,11.25,-2.10,19.90,1.61,8.73,1.61
290959,12.76,-3.47,23.31,1.65,8.73,1.85
290994,12.62,-5.16,26.61,1.74,8.73,2.11
291029,11.17,-7.41,29.21,1.69,8.73,2.41
291064,9.03,-9.14,31.41,1.49,8.73,2.64
291099,5.63,-10.55,33.29,1.21,8.73,2.78
291133,3.54,-9.21,34.85,0.96,8.73,2.68
291168,0.07,-7.95,36.27,0.85,8.73,2.40
291203,-2.92,-6.41,33.93,0.95,8.73,2.22
291238,-4.66,-7.14,30.98,1.15,8.73,2.11
291273,-5.86,-7.17,27.07,1.24,8.73,2.15
291309,-6.67,-7.11,22.74,1.19,8.73,2.21
291344,-4.24,-7.00,19.55,0.99,8.73,2.21
291379,-3.75,-5.43,17.16,0.82,8.73,2.13
291413,-1.45,-3.35,15.36,0.72,8.73,1.91
291448,1.56,-3.28,15.01,0.67,8.73,1.75
291483,4.45,-2.54,15.17,0.69,8.73,1.67
291518,7.25,-3.02,15.21,0.71,8.73,1.64
291553,9.26,-5.05,18.42,0.65,8.73,1.64
291588,11.78,-6.19,21.77,0.56,8.73,1.56
291623,12.20,-4.92,25.84,0.50,8.73,1.43
291658,12.79,-5.48,28.17,0.54,8.73,1.27
291693,11.58,-5.26,31.43,0.70,8.73,1.21
291728,8.38,-4.37,34.14,0.90,8.73,1.20
291763,5.07,-5.29,34.83,1.04,8.73,1.29
291799,1.77,-5.55,35.77,1.19,8.73,1.38
291834,-1.39,-6.05,34.03,1.22,8.73,1.48
291868,-4.33,-4.64,32.36,1.29,8.73,1.56
291903,-6.23,-5.92,29.10,1.31,8.73,1.68
291938,-5.78,-6.37,25.06,1.26,8.73,1.77
291973,-5.93,-3.99,21.93,1.09,8.73,1.76
292008,-5.60,-2.74,18.86,1.01,8.73,1.76
292043,-3.02,-1.58,17.41,0.98,8.73,1.71
292078,2.09,-0.72,15.69,0.98,8.73,1.55
292113,4.98,-2.43,15.05,1.00,8.73,1.57
292148,6.26,-3.69,15.38,0.96,8.73,1.68
292183,8.65,-5.22,16.62,0.84,8.73,1.80
292218,10.38,-5.63,19.35,0.68,8.73,1.85
292253,11.68,-4.76,23.08,0.59,8.73,1.81
292288,12.08,-3.58,26.59,0.71,8.73,1.79
292324,11.20,-5.14,30.26,0.87,8.73,1.84
292358,8.73,-6.42,32.96,0.86,8.73,1.80
292393,5.89,-5.95,34.86,0.84,8.73,1.72
292428,2.79,-4.48,34.46,0.87,8.73,1.52
292463,-0.06,-3.66,32.85,1.00,8.73,1.39
292498,-3.11,-4.00,32.76,1.19,8.73,1.39
292533,-4.80,-4.77,30.72,1.30,8.73,1.47
292568,-6.72,-4.25,28.34,1.44,8.73,1.58
292603,-6.11,-4.77,24.33,1.39,8.73,1.67
292638,-4.60,-4.32,21.05,1.29,8.73,1.71
292673,-3.62,-1.95,18.81,1.22,8.73,1.66
292708,-1.00,0.04,17.05,1.22,8.73,1.42
292743,2.14,2.28,16.17,1.33,8.73,1.20
292778,4.42,2.76,16.86,1.62,8.73,1.10
292813,7.41,0.11,17.40,1.83,8.73,1.30
292848,10.00,-2.21,19.78,1.89,8.73,1.65
292888,12.20,-6.65,23.98,1.73,8.73,1.97
292923,12.18,-7.61,27.12,1.53,8.73,2.14
292958,11.25,-9.07,29.60,1.40,8.73,2.28
292993,9.37,-8.70,32.45,1.20,8.73,2.33
293028,5.99,-9.20,34.86,1.00,8.73,2.39
293063,3.87,-8.90,35.72,0.84,8.73,2.33
293098,-0.08,-7.85,36.01,0.73,8.73,2.22
293133,-3.08,-6.13,34.76,0.75,8.73,2.04
293168,-4.57,-6.13,31.58,0.77,8.73,1.92
293203,-5.48,-5.77,27.78,0.67,8.73,1.85
293238,-6.01,-3.97,24.97,0.44,8.73,1.66
293273,-5.11,-0.03,22.56,0.36,8.73,1.34
293308,-3.96,2.50,20.05,0.41,8.73,1.00
293344,-0.78,3.22,18.60,0.69,8.73,0.93
293378,2.33,2.09,18.44,0.91,8.73,0.94
293413,5.88,0.34,16.85,1.15,8.73,0.98
293448,9.71,0.15,20.26,1.34,8.73,1.10
293483,12.46,-4.47,23.86,1.43,8.73,1.26
293518,13.37,-4.67,25.80,1.33,8.73,1.37
