timestamp,accelX,accelY,accelZ,gyroX,gyroY,gyroZ
208601,10.39,-6.16,22.09,0.70,8.73,2.31
208636,11.39,-7.65,27.21,0.69,8.73,2.19
208671,14.48,-6.73,30.84,0.71,8.73,2.04
208706,14.55,-6.60,34.27,0.75,8.73,1.93
208741,12.69,-6.00,36.92,0.59,8.73,1.72
208776,8.78,-6.69,37.99,0.67,8.73,1.58
208811,5.79,-4.96,38.89,0.78,8.73,1.48
208847,2.32,-4.07,40.30,0.92,8.73,1.47
208881,-0.91,-7.64,37.80,0.99,8.73,1.53
208916,-4.31,-3.19,37.84,1.07,8.73,1.62
208951,-3.05,-4.38,33.28,0.96,8.73,1.56
208986,-7.38,-0.89,31.05,0.82,8.73,1.54
209021,-4.68,-2.43,27.92,1.11,8.73,1.46
209056,-3.94,2.13,24.35,1.16,8.73,1.28
209091,2.54,6.63,24.45,1.32,8.73,0.97
209126,5.37,6.53,23.76,1.71,8.73,0.82
209161,9.58,5.11,23.73,2.27,8.73,0.77
209196,11.08,0.96,25.14,2.44,8.73,1.20
209231,11.60,-6.32,28.41,2.43,8.73,1.80
209266,12.66,-8.10,31.81,2.07,8.73,2.23
209301,13.23,-9.85,36.72,1.85,8.73,2.41
209336,10.66,-9.31,40.61,1.55,8.73,2.48
209371,6.52,-11.08,42.00,1.36,8.73,2.43
209406,3.01,-8.40,42.48,1.28,8.73,2.29
209441,0.74,-8.04,40.69,1.39,8.73,2.17
209476,-4.13,-7.28,40.69,1.78,8.73,2.06
209511,-5.05,-7.82,36.64,1.98,8.73,2.23
209552,-7.48,-12.21,31.62,2.03,8.73,2.65
209586,-5.68,-13.10,27.53,1.76,8.73,2.85
209621,-3.33,-9.12,23.99,1.26,8.73,2.82
209656,-0.85,-7.47,22.63,0.99,8.73,2.53
209691,3.65,-5.65,23.23,0.89,8.73,2.30
209726,7.58,-5.12,23.42,1.01,8.73,2.09
209761,11.27,-0.83,26.75,1.22,8.73,1.93
209796,14.04,-3.39,29.25,1.28,8.73,1.91
209832,14.20,-5.79,32.58,1.32,8.73,1.99
209866,12.45,-8.87,35.25,1.27,8.73,2.03
209901,10.50,-9.06,37.70,1.18,8.73,1.90
209936,8.18,-5.20,39.86,1.12,8.73,1.75
209971,4.33,-6.53,40.98,1.20,8.73,1.65
210006,0.05,-8.49,43.01,1.30,8.73,1.74
210041,-3.35,-6.70,40.96,1.48,8.73,1.82
210075,-5.91,-5.98,38.61,1.44,8.73,1.96
210110,-4.89,-7.32,32.57,1.51,8.73,2.13
210145,-5.07,-8.52,28.17,1.44,8.73,2.30
210180,-5.21,-9.44,24.84,1.38,8.73,2.45
210215,-1.23,-7.69,23.30,1.19,8.73,2.46
210250,2.36,-5.07,22.91,1.01,8.73,2.38
210285,7.48,-3.78,23.07,1.00,8.73,2.25
210321,10.55,-4.26,23.98,0.96,8.73,2.19
210355,12.92,-7.19,27.20,0.97,8.73,2.19
210390,13.18,-6.59,30.08,0.97,8.73,2.17
210425,12.93,-7.09,33.19,0.94,8.73,2.09
210461,11.86,-5.48,37.14,0.83,8.73,2.05
210496,8.84,-9.09,39.47,0.83,8.73,1.98
210530,6.01,-7.65,41.35,0.88,8.73,1.93
210566,1.73,-5.59,42.43,0.98,8.73,1.81
210600,-1.36,-5.28,41.11,1.03,8.73,1.81
210635,-3.89,-7.01,37.01,1.10,8.73,1.83
210670,-5.98,-4.56,33.75,1.11,8.73,1.88
210705,-6.01,-4.65,30.66,1.16,8.73,1.88
210740,-3.25,-4.53,27.41,1.17,8.73,1.86
210775,-2.15,-0.31,24.17,1.10,8.73,1.80
210810,2.27,-1.91,23.38,1.14,8.73,1.74
210845,4.84,-1.52,21.37,1.25,8.73,1.65
210880,8.18,-1.80,21.85,1.45,8.73,1.67
210915,11.98,-0.65,25.95,1.58,8.73,1.80
210950,13.66,-4.87,28.66,1.60,8.73,2.02
210985,13.40,-7.79,32.05,1.50,8.73,2.22
211020,12.65,-10.30,35.15,1.42,8.73,2.33
211055,9.36,-7.44,37.52,1.25,8.73,2.35
211090,6.68,-8.57,39.61,1.08,8.73,2.23
211125,2.88,-8.23,41.03,1.08,8.73,2.16
211160,-0.12,-8.29,41.18,1.16,8.73,2.03
211195,-3.42,-6.49,39.10,1.35,8.73,2.00
211230,-5.09,-6.68,35.75,1.34,8.73,2.05
211265,-5.60,-6.87,30.34,1.28,8.73,2.14
211300,-4.68,-7.68,25.98,1.15,8.73,2.16
211336,-3.74,-4.51,22.50,1.18,8.73,2.14
211371,-0.17,-3.24,22.79,0.96,8.73,2.01
211405,1.90,-4.72,21.10,0.93,8.73,2.06
211440,5.53,-7.10,20.03,0.96,8.73,2.03
211475,9.95,-3.19,22.56,1.03,8.73,2.00
211510,11.65,-4.47,26.92,0.96,8.73,1.97
211545,13.11,-6.07,29.63,1.00,8.73,2.03
211585,13.03,-3.94,33.91,1.00,8.73,2.00
211620,11.46,-10.43,36.49,0.95,8.73,2.00
211655,9.06,-7.34,40.35,1.03,8.73,1.99
211690,5.34,-6.11,42.22,0.94,8.73,1.93
211725,1.18,-5.97,41.55,0.96,8.73,1.98
211760,-2.19,-8.98,37.66,1.00,8.73,1.94
211795,-4.16,-4.27,35.15,1.03,8.73,1.94
211831,-4.80,-4.92,31.36,0.94,8.73,1.88
211865,-5.24,-3.88,27.79,0.87,8.73,1.93
211900,-3.25,-5.78,24.12,0.96,8.73,1.86
211935,-2.02,1.11,22.86,0.93,8.73,1.81
211970,1.16,-1.53,20.99,0.99,8.73,1.74
212005,1.43,-1.26,22.28,1.12,8.73,1.80
212039,7.00,-2.66,22.44,1.27,8.73,1.77
212074,11.11,-3.58,25.56,1.24,8.73,1.83
212109,13.97,-7.04,26.48,1.21,8.73,1.90
212144,12.22,-7.89,29.68,1.18,8.73,1.92
212179,12.10,-5.75,33.70,1.16,8.73,1.91
212214,10.30,-8.18,36.88,1.03,8.73,1.93
212249,7.47,-8.18,38.89,1.09,8.73,1.94
212284,3.89,-6.60,40.28,1.05,8.73,1.83
212320,0.56,-5.94,39.87,1.05,8.73,1.82
212354,-3.37,-9.14,37.19,1.23,8.73,1.81
212390,-4.87,-5.75,36.23,1.09,8.73,1.87
212425,-5.26,-5.64,31.34,1.05,8.73,1.95
212459,-8.27,-7.26,28.46,0.97,8.73,1.91
212494,-6.18,-1.12,26.18,0.92,8.73,1.92
212529,-1.93,-5.22,22.67,0.89,8.73,1.90
212564,1.53,-5.04,20.31,0.97,8.73,1.97
212599,5.34,-5.54,20.28,0.97,8.73,1.92
212634,9.48,-1.74,23.06,0.93,8.73,1.91
212670,11.92,-7.49,25.23,0.88,8.73,1.88
212704,12.84,-6.25,28.12,0.92,8.73,1.87
212739,13.18,-5.90,31.57,0.90,8.73,1.75
212774,12.24,-4.59,35.29,0.83,8.73,1.77
212809,9.39,-8.45,37.16,0.95,8.73,1.74
212844,6.45,-5.35,38.92,0.96,8.73,1.77
212879,3.11,-5.72,40.27,0.99,8.73,1.87
212914,-0.38,-9.37,38.50,0.93,8.73,1.96
212949,-3.54,-4.69,37.57,1.02,8.73,1.92
212984,-5.28,-5.48,33.80,0.91,8.73,1.87
213019,-7.02,-4.30,31.02,0.90,8.73,1.93
213054,-8.80,-4.46,29.94,1.08,8.73,1.91
213089,-6.73,-1.72,26.54,0.91,8.73,1.93
213124,-0.11,-4.99,22.74,0.99,8.73,1.97
213159,5.45,-4.01,20.04,1.00,8.73,1.96
213194,8.60,-4.52,20.18,0.97,8.73,1.92
213229,10.19,-3.35,21.69,0.82,8.73,1.93
213264,11.25,-6.05,23.72,0.94,8.73,1.89
213299,12.44,-4.03,27.13,0.90,8.73,1.85
213335,13.69,-5.92,30.40,0.84,8.73,1.87
213370,11.77,-7.67,33.91,0.91,8.73,1.84
213404,9.75,-4.22,37.10,0.85,8.73,1.88
213439,5.83,-8.21,38.16,0.98,8.73,1.85
213474,2.62,-6.58,39.49,1.03,8.73,1.79
213509,-0.11,-4.95,39.12,1.07,8.73,1.85
213544,-4.25,-8.86,37.36,1.16,8.73,1.91
213579,-4.92,-4.74,35.17,1.24,8.73,1.96
213619,-6.06,-5.53,30.91,1.13,8.73,2.00
213654,-5.77,-4.38,26.55,1.18,8.73,2.02
213689,-2.97,-3.99,22.45,1.05,8.73,2.14
213724,0.86,-7.28,19.69,1.06,8.73,2.23
213759,3.70,-6.12,19.91,1.00,8.73,2.19
213794,6.47,-2.70,20.56,0.95,8.73,2.10
213830,9.69,-4.85,21.48,0.98,8.73,2.04
213865,11.58,-3.35,25.07,1.09,8.73,2.00
213899,14.11,-4.13,27.81,1.14,8.73,2.02
213934,11.70,-6.60,31.77,1.16,8.73,2.17
213970,11.86,-8.41,35.15,1.20,8.73,2.28
214004,8.62,-7.02,37.86,1.00,8.73,2.30
214039,6.63,-7.59,38.46,0.83,8.73,2.18
214074,1.53,-8.94,40.08,0.74,8.73,2.19
214109,-1.53,-5.75,39.38,0.71,8.73,2.06
214144,-4.12,-5.39,34.90,0.83,8.73,1.96
214179,-5.68,-4.19,31.94,0.83,8.73,1.90
214214,-5.16,-2.53,28.39,0.81,8.73,1.89
214249,-5.65,-5.32,25.86,0.83,8.73,1.85
214284,-2.92,-0.88,23.15,0.95,8.73,1.91
214318,0.13,-5.02,19.79,0.97,8.73,2.01
214353,1.84,-5.61,18.75,1.00,8.73,2.08
214388,5.70,-3.72,18.99,0.96,8.73,2.05
214423,7.63,-5.34,22.00,1.00,8.73,1.95
214458,10.43,-4.22,25.66,1.09,8.73,1.96
214493,12.22,-4.36,28.23,1.15,8.73,1.97
214528,12.72,-8.27,31.91,1.22,8.73,2.08
214563,12.51,-7.95,36.01,1.21,8.73,2.11
214598,8.33,-7.16,38.45,1.05,8.73,2.08
214633,5.74,-8.21,38.50,1.04,8.73,1.98
214668,1.60,-8.70,38.92,1.09,8.73,1.95
214703,-1.32,-5.78,37.20,1.01,8.73,1.96
214738,-3.46,-7.90,33.61,1.09,8.73,1.97
214773,-5.33,-6.12,31.42,1.07,8.73,1.97
214808,-5.17,-4.47,27.99,0.99,8.73,2.02
214844,-4.22,-4.79,25.14,0.97,8.73,1.98
214878,-2.96,-2.89,22.50,0.88,8.73,1.94
214913,-0.15,-4.45,19.70,0.88,8.73,1.91
214948,4.41,-3.87,19.64,0.90,8.73,1.88
214983,8.05,-3.05,19.02,0.91,8.73,1.82
215018,10.74,-4.41,20.45,0.94,8.73,1.82
215053,10.94,-5.93,21.39,0.85,8.73,1.83
215088,9.46,-2.14,27.13,0.89,8.73,1.92
215124,13.38,-6.90,31.13,0.98,8.73,1.88
215158,12.03,-6.79,34.85,1.09,8.73,1.99
215192,10.04,-6.20,37.12,1.10,8.73,2.02
215227,5.55,-7.02,35.92,1.00,8.73,1.99
215262,2.60,-6.51,36.98,0.98,8.73,1.91
215298,-1.07,-6.87,38.06,1.00,8.73,1.85
215333,-4.04,-5.24,36.17,1.16,8.73,1.79
215368,-5.64,-5.30,32.02,1.22,8.73,1.79
215402,-6.46,-6.40,28.69,1.30,8.73,1.91
215438,-6.81,-7.46,26.65,1.26,8.73,2.01
215473,-7.24,-5.66,22.89,1.21,8.73,2.15
215507,-2.50,-4.78,21.05,1.10,8.73,2.17
215542,1.86,-7.24,20.13,1.00,8.73,2.17
215577,4.69,-6.27,19.11,0.94,8.73,2.14
215612,9.17,-4.25,20.56,0.85,8.73,2.15
215652,11.33,-5.99,24.00,0.86,8.73,2.08
215687,13.10,-6.08,28.08,0.79,8.73,2.03
215722,13.59,-7.42,30.57,0.87,8.73,2.03
215757,12.57,-4.82,34.22,0.96,8.73,2.06
215792,8.70,-7.57,35.97,0.88,8.73,2.13
215828,6.31,-8.00,36.73,0.86,8.73,2.23
215862,2.46,-7.13,38.16,0.70,8.73,2.27
215897,-0.85,-6.99,38.87,0.51,8.73,2.22
215932,-3.87,-4.78,36.77,0.55,8.73,2.04
215967,-6.15,-4.80,34.63,0.66,8.73,1.88
216002,-6.76,-5.65,30.53,0.79,8.73,1.85
216037,-5.03,-3.52,26.46,0.85,8.73,1.80
216072,-3.87,-3.73,22.33,0.88,8.73,1.82
216108,-1.18,-2.76,20.49,0.98,8.73,1.83
216142,2.29,-3.95,19.14,0.96,8.73,1.88
216177,5.86,-4.53,19.13,0.97,8.73,1.96
216212,7.41,-3.54,20.02,0.92,8.73,2.11
216247,11.33,-7.78,23.42,0.96,8.73,2.08
216282,13.86,-4.17,27.99,1.04,8.73,2.09
216317,14.16,-3.59,29.63,1.12,8.73,2.14
216352,11.69,-6.46,31.90,1.23,8.73,2.40
216388,10.27,-8.99,34.27,1.21,8.73,2.67
216422,6.31,-10.10,36.96,0.93,8.73,2.78
216457,4.31,-9.35,39.86,0.58,8.73,2.67
216492,-0.11,-9.17,39.39,0.42,8.73,2.37
216527,-3.11,-6.40,37.11,0.45,8.73,2.10
216562,-5.80,-5.55,34.43,0.46,8.73,1.89
216597,-5.43,-4.54,31.12,0.47,8.73,1.75
216632,-6.88,-2.09,27.37,0.38,8.73,1.52
216667,-6.73,0.45,24.82,0.49,8.73,1.25
216702,-4.89,0.58,24.53,0.77,8.73,1.19
216737,2.99,-1.35,22.53,1.02,8.73,1.41
216772,10.35,-1.43,21.74,1.25,8.73,1.48
216807,11.76,-5.09,21.23,1.30,8.73,1.64
216843,10.74,-6.82,23.76,1.28,8.73,1.77
216877,12.72,-6.08,26.94,1.33,8.73,1.88
216912,12.48,-6.22,30.25,1.43,8.73,2.08
216947,12.40,-8.55,33.52,1.49,8.73,2.35
216982,8.34,-9.68,36.43,1.36,8.73,2.53
217017,6.41,-11.10,38.37,1.12,8.73,2.67
217052,2.81,-11.47,40.17,0.75,8.73,2.73
217087,-1.53,-12.61,39.00,0.47,8.73,2.58
217122,-3.88,-5.02,38.67,0.35,8.73,2.32
217157,-4.31,-6.63,33.23,0.21,8.73,2.03
217192,-6.16,-1.56,30.84,0.10,8.73,1.77
217227,-5.53,-3.98,27.15,0.35,8.73,1.50
217262,-4.15,1.89,24.69,0.58,8.73,1.35
217297,-0.10,2.56,22.08,0.77,8.73,1.10
217333,0.86,0.44,20.15,1.03,8.73,1.25
217367,6.61,-1.13,21.42,1.31,8.73,1.34
217403,12.17,-2.20,24.73,1.72,8.73,1.38
217437,14.16,-0.99,26.33,2.00,8.73,1.55
217473,13.06,-2.81,30.48,2.29,8.73,1.99
217507,12.99,-7.08,34.24,2.14,8.73,2.55
217543,11.81,-13.58,36.70,1.85,8.73,2.89
217577,8.74,-15.37,39.49,1.47,8.73,2.87
217612,3.73,-12.36,42.05,1.13,8.73,2.62
217647,-0.52,-9.83,40.96,1.07,8.73,2.40
217687,-4.46,-10.07,37.59,1.06,8.73,2.25
217722,-4.70,-8.79,32.90,0.94,8.73,2.18
217757,-6.48,-7.75,29.26,0.81,8.73,2.10
217792,-5.14,-4.41,25.73,0.69,8.73,1.95
217828,-4.39,-4.97,21.69,0.67,8.73,1.71
217863,-1.62,-0.59,20.81,0.71,8.73,1.34
217897,1.38,1.43,19.16,0.91,8.73,1.15
217932,6.22,1.60,21.19,1.26,8.73,1.10
217967,8.52,-2.22,19.74,1.64,8.73,1.16
218002,11.07,-3.78,25.21,1.63,8.73,1.50
218037,14.18,-5.69,28.93,1.64,8.73,1.82
218072,16.36,-8.80,30.20,1.79,8.73,2.09
218107,10.82,-7.97,33.49,1.84,8.73,2.43
218142,9.35,-12.70,34.55,1.63,8.73,2.70
218177,4.47,-11.53,35.00,1.28,8.73,3.03
218212,1.75,-14.65,39.21,0.86,8.73,3.06
218247,-0.23,-6.27,38.85,0.49,8.73,2.93
218282,-4.72,-11.37,34.76,0.38,8.73,2.61
218318,-4.29,-6.56,32.79,0.28,8.73,2.40
218352,-7.74,-4.58,29.90,0.28,8.73,2.15
218388,-4.96,-3.65,24.95,0.21,8.73,2.02
218422,-0.88,-4.97,20.72,0.32,8.73,1.77
218457,-1.47,-1.37,17.69,0.38,8.73,1.65
218492,2.35,-3.28,18.55,0.43,8.73,1.69
218527,8.22,-5.27,17.54,0.43,8.73,1.75
218562,10.22,-4.34,18.74,0.52,8.73,1.70
218597,11.60,-3.88,22.57,0.65,8.73,1.57
218632,13.48,-2.33,24.51,0.94,8.73,1.51
218667,13.76,-2.23,26.43,1.30,8.73,1.67
218702,10.41,-7.10,29.57,1.52,8.73,1.93
218737,9.69,-6.46,32.39,1.46,8.73,2.09
218772,7.19,-9.56,34.62,1.36,8.73,2.09
218807,3.22,-7.95,35.76,1.36,8.73,1.92
218842,-0.08,-7.89,34.36,1.44,8.73,1.81
218877,-2.98,-6.89,33.87,1.50,8.73,1.84
218912,-4.73,-7.90,31.13,1.57,8.73,1.96
218947,-6.00,-8.37,27.66,1.39,8.73,2.14
218982,-6.10,-7.12,24.22,1.24,8.73,2.24
219017,-4.61,-7.32,20.56,1.11,8.73,2.27
219052,-3.51,-6.96,16.89,0.96,8.73,2.34
219087,-1.25,-6.36,14.82,0.85,8.73,2.38
219122,1.54,-6.49,14.88,0.70,8.73,2.33
219157,4.21,-4.68,14.76,0.60,8.73,2.14
219192,7.78,-2.84,15.89,0.60,8.73,1.92
219227,10.75,-3.68,18.64,0.68,8.73,1.74
219262,9.76,-0.21,20.53,0.73,8.73,1.77
219297,13.36,-4.75,25.47,0.92,8.73,1.74
219333,12.04,-3.70,27.72,0.79,8.73,1.81
219368,11.30,-5.80,32.12,0.84,8.73,1.90
219402,9.04,-5.72,35.02,0.87,8.73,1.92
219437,5.61,-6.60,34.15,0.80,8.73,1.98
219472,0.95,-7.12,36.16,0.65,8.73,2.09
219507,-0.84,-5.90,34.41,0.57,8.73,2.00
219542,-3.57,-4.64,32.78,0.65,8.73,1.84
219577,-5.74,-3.85,30.03,0.70,8.73,1.77
219612,-4.92,-3.56,26.11,0.71,8.73,1.71
219647,-4.10,-2.66,22.13,0.68,8.73,1.61
219682,-4.47,-1.04,19.07,0.75,8.73,1.58
219722,-1.12,-0.12,16.65,0.82,8.73,1.52
219757,-1.41,-0.67,15.40,0.89,8.73,1.51
219792,3.28,-2.45,15.53,0.94,8.73,1.51
219827,7.30,-1.66,17.17,0.97,8.73,1.59
219862,9.86,-3.65,18.37,1.02,8.73,1.59
219897,12.57,-3.78,21.76,1.01,8.73,1.60
219932,13.01,-3.20,25.26,1.06,8.73,1.63
219967,12.83,-6.06,27.54,1.12,8.73,1.67
220002,11.55,-5.87,30.99,1.12,8.73,1.65
220037,8.05,-5.85,33.18,1.10,8.73,1.61
220072,4.75,-6.17,33.93,1.13,8.73,1.56
220107,2.19,-6.29,35.51,1.25,8.73,1.52
220142,-1.02,-5.58,33.85,1.32,8.73,1.58
220177,-4.24,-6.11,33.33,1.47,8.73,1.64
220212,-5.05,-5.53,29.48,1.55,8.73,1.78
220247,-6.83,-6.83,25.97,1.49,8.73,1.96
220282,-8.77,-6.43,23.95,1.38,8.73,2.12
220318,-3.37,-6.78,20.12,1.25,8.73,2.24
220352,-4.27,-5.70,16.58,1.02,8.73,2.15
220388,-2.96,-3.05,16.49,0.94,8.73,2.21
220422,2.87,-4.85,16.78,0.87,8.73,2.19
220457,5.64,-5.99,15.33,0.73,8.73,2.20
220492,8.50,-6.09,17.12,0.56,8.73,2.19
220527,12.23,-4.99,20.58,0.39,8.73,2.07
220562,11.60,-4.96,24.73,0.41,8.73,1.92
220597,13.68,-3.75,27.21,0.46,8.73,1.79
220632,11.61,-6.21,30.53,0.53,8.73,1.67
220667,8.98,-5.36,33.50,0.51,8.73,1.50
220702,6.42,-4.34,34.22,0.57,8.73,1.29
220737,2.85,-4.47,36.30,0.78,8.73,1.18
220772,0.11,-3.38,35.95,0.92,8.73,1.19
220807,-2.96,-3.32,34.76,0.97,8.73,1.25
220843,-4.59,-4.22,30.89,0.76,8.73,1.40
220877,-6.12,-0.23,28.22,0.67,8.73,1.34
220912,-7.41,-0.55,25.50,0.70,8.73,1.23
220947,-5.43,1.29,22.91,0.75,8.73,1.11
220982,-3.10,2.14,19.17,1.00,8.73,1.14
221017,0.10,1.30,17.47,1.20,8.73,1.21
221052,1.37,0.08,15.63,1.34,8.73,1.27
221087,5.39,-1.42,16.06,1.44,8.73,1.41
221122,8.96,-1.27,16.64,1.58,8.73,1.53
221157,11.17,-2.73,19.64,1.66,8.73,1.71
221192,12.19,-5.33,22.34,1.67,8.73,1.92
221227,13.00,-7.99,25.18,1.51,8.73,2.08
221262,12.33,-8.33,28.37,1.34,8.73,2.20
221297,10.01,-8.61,31.41,1.13,8.73,2.27
221332,7.81,-9.15,33.23,0.96,8.73,2.34
221368,4.35,-9.71,34.77,0.80,8.73,2.34
221402,1.32,-9.01,35.18,0.59,8.73,2.40
221437,-1.12,-6.42,32.48,0.26,8.73,2.35
221472,-5.16,-6.82,31.68,0.09,8.73,2.17
221507,-6.31,-2.11,30.73,0.07,8.73,1.90
221542,-6.31,-2.26,26.06,0.19,8.73,1.68
221577,-5.22,-1.88,23.38,0.33,8.73,1.58
221612,-4.93,-1.90,19.47,0.54,8.73,1.56
221647,-0.85,-1.01,17.30,0.63,8.73,1.46
221682,2.21,-2.37,15.66,0.72,8.73,1.48
221717,5.93,-1.45,16.33,0.84,8.73,1.45
221757,8.59,-2.69,15.16,0.96,8.73,1.47
221792,10.98,-4.11,19.81,1.04,8.73,1.54
221828,12.16,-4.94,22.35,1.03,8.73,1.60
221862,12.59,-5.24,24.88,1.00,8.73,1.65
221897,12.06,-7.96,27.44,1.06,8.73,1.72
221932,10.45,-8.25,30.94,0.95,8.73,1.65
221967,8.30,-6.83,33.05,0.91,8.73,1.58
222002,4.09,-6.99,33.26,0.97,8.73,1.61
222037,1.00,-7.74,33.25,0.97,8.73,1.72
222072,-1.35,-7.93,33.15,0.76,8.73,1.89
222107,-4.59,-6.63,31.95,0.59,8.73,1.91
222142,-5.58,-4.92,28.80,0.45,8.73,1.82
222177,-5.37,-3.80,24.83,0.34,8.73,1.66
222212,-5.20,-0.68,22.47,0.41,8.73,1.47
222247,-4.56,-0.49,19.15,0.58,8.73,1.41
222282,-2.40,-2.32,16.40,0.75,8.73,1.45
222318,1.07,-2.61,14.87,0.84,8.73,1.49
222352,4.53,-2.09,16.27,0.88,8.73,1.50
222388,6.64,-2.01,14.71,1.00,8.73,1.42
222422,9.78,-2.16,15.45,1.12,8.73,1.44
222457,12.25,-4.36,18.63,1.19,8.73,1.54
222492,12.18,-3.31,21.44,1.20,8.73,1.69
222527,11.87,-7.68,24.97,1.27,8.73,1.83
222562,10.95,-6.66,27.81,1.12,8.73,1.92
222597,8.56,-7.55,29.63,1.00,8.73,2.02
222632,7.49,-8.78,33.40,0.91,8.73,2.11
222667,3.45,-8.90,35.26,0.74,8.73,2.25
222702,-0.37,-9.21,33.37,0.45,8.73,2.40
222737,-2.67,-8.45,33.59,0.19,8.73,2.40
222772,-5.04,-6.09,32.76,-0.02,8.73,2.18
222807,-6.22,-2.13,29.16,-0.05,8.73,1.87
222843,-5.96,-2.05,25.01,0.08,8.73,1.62
222877,-3.93,-0.42,21.92,0.28,8.73,1.46
222912,-2.80,-2.02,18.22,0.52,8.73,1.47
222947,-1.99,-1.81,15.95,0.69,8.73,1.55
222982,2.51,-2.91,15.58,0.77,8.73,1.66
223017,5.65,-3.15,14.99,0.84,8.73,1.69
223052,7.51,-6.89,17.00,0.99,8.73,1.54
223087,12.22,-3.18,19.42,1.01,8.73,1.61
223122,12.17,-3.18,21.49,1.23,8.73,1.66
223157,10.96,-7.48,25.09,1.29,8.73,1.79
223192,11.41,-8.30,28.61,1.16,8.73,1.85
223227,11.59,-6.93,31.75,1.14,8.73,2.06
223262,7.68,-8.83,33.90,1.06,8.73,2.22
223297,3.83,-10.11,34.49,0.91,8.73,2.32
223333,1.16,-9.32,35.64,0.74,8.73,2.35
223367,-2.88,-8.36,33.96,0.55,8.73,2.24
223402,-4.82,-6.34,32.49,0.52,8.73,2.05
223437,-5.82,-5.96,28.84,0.41,8.73,1.92
223472,-6.98,-3.67,25.38,0.38,8.73,1.76
223507,-5.25,-3.04,22.17,0.43,8.73,1.62
223542,-4.87,-1.20,19.72,0.55,8.73,1.52
223577,-1.56,-2.05,17.36,0.72,8.73,1.47
223612,1.53,-2.47,16.49,0.84,8.73,1.45
223647,4.74,-1.03,17.07,1.02,8.73,1.44
223682,8.36,-3.06,18.69,1.17,8.73,1.50
223717,10.54,-1.88,21.05,1.35,8.73,1.61
223752,13.00,-2.61,23.72,1.62,8.73,1.74
223792,13.99,-5.55,27.17,1.82,8.73,2.06
223828,12.11,-9.03,30.75,1.93,8.73,2.50
223863,9.68,-10.94,32.62,1.62,8.73,2.78
223897,5.57,-11.94,35.34,1.29,8.73,2.85
223932,4.17,-9.66,37.48,0.94,8.73,2.69
223967,-0.43,-10.06,36.95,0.81,8.73,2.49
224002,-3.06,-8.15,35.09,0.71,8.73,2.33
224037,-4.52,-7.31,31.89,0.68,8.73,2.18
224072,-5.05,-5.32,26.91,0.65,8.73,2.06
224107,-5.97,-5.68,24.15,0.63,8.73,1.94
224142,-4.53,-5.08,21.28,0.59,8.73,1.85
224177,-4.27,-3.25,17.94,0.63,8.73,1.77
224212,1.68,-2.25,17.38,0.67,8.73,1.61
224247,2.98,-2.50,16.21,0.74,8.73,1.50
224282,6.02,-2.11,17.48,0.88,8.73,1.44
224317,9.90,-1.64,17.63,1.06,8.73,1.45
224352,11.76,-3.37,20.71,1.26,8.73,1.50
224388,12.09,-4.88,25.30,1.28,8.73,1.63
224422,13.60,-7.33,27.49,1.34,8.73,1.74
224457,12.56,-7.84,30.10,1.31,8.73,1.84
224492,8.60,-7.85,31.88,1.21,8.73,1.88
224527,5.12,-8.34,32.94,1.12,8.73,1.91
224562,3.51,-7.80,34.88,1.05,8.73,1.99
224597,-0.34,-8.38,35.46,1.01,8.73,2.03
224632,-3.09,-7.49,31.79,0.95,8.73,2.06
224667,-5.26,-6.74,28.88,0.84,8.73,2.04
224702,-7.35,-5.88,28.14,0.77,8.73,1.96
224737,-9.07,-4.24,24.84,0.76,8.73,1.88
224772,-4.44,-2.88,22.61,0.80,8.73,1.82
224807,-3.75,-2.64,18.56,0.86,8.73,1.78
224843,-0.87,-1.51,16.21,0.88,8.73,1.58
224877,1.38,-0.53,16.45,0.97,8.73,1.42
224912,5.29,-1.26,16.70,1.13,8.73,1.34
224947,9.44,-1.07,17.37,1.32,8.73,1.36
224982,11.12,-2.60,19.12,1.44,8.73,1.49
225017,11.96,-4.45,22.07,1.46,8.73,1.64
225052,12.80,-6.67,25.33,1.39,8.73,1.78
225087,12.45,-7.48,28.60,1.27,8.73,1.84
225122,10.49,-8.86,31.70,1.13,8.73,1.85
225157,7.94,-7.69,34.21,1.03,8.73,1.85
225192,4.68,-8.71,35.53,0.89,8.73,1.95
225227,1.01,-8.54,34.90,1.02,8.73,1.92
225262,-2.99,-8.52,33.52,0.88,8.73,1.97
225297,-5.33,-7.62,33.16,0.60,8.73,2.04
225333,-4.99,-4.92,29.74,0.55,8.73,1.97
225368,-6.22,-4.86,25.64,0.47,8.73,1.85
225402,-3.69,-1.46,22.98,0.44,8.73,1.69
225437,-3.56,-1.98,19.64,0.53,8.73,1.60
225472,0.16,-2.38,18.16,0.61,8.73,1.56
225507,1.74,-3.48,15.87,0.66,8.73,1.64
225542,4.98,-3.75,15.96,0.65,8.73,1.69
225577,8.84,-4.16,16.79,0.66,8.73,1.67
225612,10.84,-3.98,19.78,0.65,8.73,1.61
225647,12.99,-1.67,22.37,0.83,8.73,1.53
225682,12.84,-2.34,26.47,1.17,8.73,1.56
225717,12.08,-7.10,28.95,1.42,8.73,1.75
225752,10.83,-2.89,31.80,1.34,8.73,1.88
225787,8.02,-8.81,35.04,1.30,8.73,1.91
225827,4.72,-6.98,35.88,1.21,8.73,1.78
225862,0.68,-5.27,37.61,1.24,8.73,1.78
225897,-2.05,-7.17,34.74,1.46,8.73,1.72
225932,-5.16,-6.40,31.66,1.45,8.73,1.82
225967,-5.82,-6.76,28.65,1.38,8.73,1.98
226002,-7.16,-5.57,25.44,1.28,8.73,2.10
226037,-5.46,-6.00,21.66,1.21,8.73,2.20
226072,-5.00,-6.79,18.17,1.08,8.73,2.28
226107,-1.54,-6.04,18.13,0.92,8.73,2.33
226142,0.80,-6.36,16.81,0.76,8.73,2.33
226177,4.74,-4.46,16.98,0.62,8.73,2.27
226212,9.04,-5.73,19.53,0.59,8.73,2.09
226247,11.72,-2.89,22.25,0.61,8.73,1.94
226282,13.27,-4.82,24.71,0.67,8.73,1.83
226318,12.78,-5.71,28.38,0.70,8.73,1.72
226352,12.40,-6.33,31.35,0.67,8.73,1.62
226388,9.60,-5.12,34.05,0.68,8.73,1.42
226422,7.12,-5.26,36.29,0.80,8.73,1.31
226457,3.80,-4.67,38.01,0.97,8.73,1.30
226493,0.11,-4.50,37.62,1.12,8.73,1.39
226527,-2.59,-3.98,36.50,1.27,8.73,1.44
226562,-5.35,-4.35,33.38,1.31,8.73,1.56
226597,-6.21,-5.22,29.60,1.38,8.73,1.71
226632,-5.43,-4.09,25.54,1.34,8.73,1.78
226667,-3.83,-3.80,21.89,1.27,8.73,1.83
226703,-2.99,-2.47,18.84,1.11,8.73,1.75
226737,0.72,-1.64,17.75,1.14,8.73,1.72
226772,3.51,-1.21,16.94,1.15,8.73,1.64
226807,2.76,-1.27,16.91,1.24,8.73,1.75
226843,9.52,-2.89,20.96,1.37,8.73,1.77
226877,11.43,-4.34,22.01,1.42,8.73,1.92
226912,12.74,-3.56,25.63,1.36,8.73,2.11
226947,12.56,-5.79,29.09,1.40,8.73,2.29
226982,10.64,-8.31,32.24,1.32,8.73,2.49
227017,9.62,-8.17,34.77,1.18,8.73,2.55
227052,4.59,-8.12,35.43,0.95,8.73,2.43
227087,2.60,-7.52,37.07,0.82,8.73,2.17
227122,-0.50,-5.36,36.35,0.86,8.73,2.00
227157,-3.97,-6.80,34.27,0.96,8.73,1.94
227192,-5.97,-4.83,31.47,1.06,8.73,1.90
227227,-4.98,-6.14,27.00,1.19,8.73,1.97
227262,-5.44,-4.39,23.76,1.25,8.73,2.05
227297,-6.53,-5.89,21.58,1.12,8.73,2.03
227333,-2.35,-5.88,18.83,1.06,8.73,2.10
227368,0.17,-3.53,17.22,1.00,8.73,2.02
227402,3.67,-3.32,18.24,0.98,8.73,1.87
227437,7.08,-1.75,18.50,1.01,8.73,1.79
227472,10.46,-4.53,20.45,1.08,8.73,1.78
227507,12.79,-2.54,24.57,1.16,8.73,1.83
227542,12.56,-5.72,27.50,1.17,8.73,1.87
227577,12.08,-7.00,30.85,1.14,8.73,1.91
227612,11.74,-7.40,34.09,1.08,8.73,1.97
227647,9.03,-7.05,36.74,1.06,8.73,1.90
227682,5.02,-6.29,36.96,1.03,8.73,1.80
227717,1.05,-6.78,37.29,1.07,8.73,1.77
227752,-1.33,-5.45,35.27,1.05,8.73,1.83
227787,-4.32,-5.41,34.17,1.11,8.73,1.88
227822,-5.36,-5.32,29.88,1.05,8.73,1.90
227862,-6.78,-3.12,26.88,1.00,8.73,1.92
227897,-5.04,-4.27,23.42,0.99,8.73,1.93
227932,-3.98,-3.31,21.67,0.98,8.73,1.93
227967,-2.93,-3.97,19.94,0.99,8.73,1.99
228002,0.49,-3.35,19.90,0.99,8.73,2.01
228038,6.00,-3.81,20.02,0.97,8.73,1.97
228072,10.49,-5.07,20.63,0.99,8.73,1.94
228108,12.39,-4.63,24.44,1.01,8.73,1.89
228142,12.71,-5.28,27.21,0.95,8.73,1.90
228177,12.89,-6.23,30.19,0.91,8.73,1.86
228212,11.75,-6.38,33.55,0.86,8.73,1.83
228247,9.57,-6.44,35.79,0.91,8.73,1.76
228282,5.67,-5.80,36.66,0.86,8.73,1.73
228317,2.65,-7.15,37.48,0.92,8.73,1.75
228352,-0.37,-4.79,37.83,0.99,8.73,1.76
228387,-3.74,-7.10,35.44,1.04,8.73,1.76
228422,-3.67,-5.10,32.14,1.01,8.73,1.79
228457,-6.74,-4.90,29.39,1.05,8.73,1.85
228492,-6.96,-3.84,26.79,1.03,8.73,1.85
228527,-6.64,-5.02,22.89,1.01,8.73,1.96
228562,-2.25,-4.16,21.78,1.07,8.73,2.03
228597,2.61,-4.60,20.43,0.97,8.73,2.08
228632,6.60,-4.30,19.08,0.88,8.73,2.12
228667,10.13,-6.45,19.80,0.85,8.73,2.11
228702,11.72,-4.74,23.62,0.74,8.73,2.03
228737,12.88,-3.90,25.84,0.86,8.73,2.01
228772,12.93,-4.99,29.53,0.97,8.73,2.01
228807,11.54,-8.16,32.68,1.04,8.73,2.14
228843,10.23,-6.69,35.43,1.03,8.73,2.23
228877,5.82,-7.58,37.80,0.89,8.73,2.34
228912,3.61,-8.60,40.43,0.72,8.73,2.36
228947,-0.12,-8.03,39.33,0.45,8.73,2.31
228982,-3.37,-6.57,37.55,0.18,8.73,2.21
229017,-4.82,-4.37,35.02,0.08,8.73,2.03
229052,-6.85,-1.43,32.37,0.11,8.73,1.76
229087,-7.19,0.37,28.46,0.28,8.73,1.62
229122,-6.13,-2.12,24.37,0.59,8.73,1.68
229157,-2.40,-3.55,21.60,0.77,8.73,1.84
229192,3.08,-6.29,20.43,0.73,8.73,2.03
229227,8.54,-6.55,21.10,0.58,8.73,2.17
229262,10.96,-8.11,21.44,0.53,8.73,2.12
229297,12.23,-3.89,23.81,0.46,8.73,1.97
229333,12.25,-4.29,26.56,0.64,8.73,1.88
229368,12.72,-4.91,29.71,0.82,8.73,1.80
229402,12.39,-4.44,34.16,0.93,8.73,1.97
229437,8.72,-8.88,35.87,1.08,8.73,2.15
229472,6.60,-7.84,39.55,0.99,8.73,2.15
229507,3.02,-7.04,41.12,0.93,8.73,2.09
229542,-0.02,-9.00,39.04,0.90,8.73,2.06
229577,-3.46,-5.73,37.87,1.03,8.73,1.96
229612,-4.51,-5.79,33.72,0.93,8.73,1.95
229647,-5.66,-5.96,30.06,0.95,8.73,1.99
229682,-5.79,-5.52,26.71,0.95,8.73,1.89
229717,-4.47,-2.24,23.39,0.82,8.73,1.88
229752,-2.72,-4.03,20.24,0.86,8.73,1.77
229787,3.18,-1.62,20.11,0.90,8.73,1.62
229823,6.18,0.41,21.20,1.01,8.73,1.60
229857,9.43,-3.07,20.92,1.11,8.73,1.59
229897,11.09,-4.69,23.84,1.20,8.73,1.70
229932,11.87,-3.42,26.94,1.17,8.73,1.77
229967,13.42,-5.26,30.93,1.09,8.73,1.81
230002,12.02,-8.69,34.95,0.99,8.73,1.78
230037,9.58,-6.64,38.04,1.07,8.73,1.70
230072,5.88,-5.21,39.37,1.07,8.73,1.59
230107,2.54,-6.79,39.52,1.12,8.73,1.73
230142,-0.63,-8.59,37.26,1.27,8.73,1.76
230177,-2.81,-4.40,35.99,1.26,8.73,1.81
230212,-6.07,-7.52,32.43,1.27,8.73,1.94
230247,-5.50,-6.66,28.74,1.20,8.73,1.96
230282,-5.71,-2.46,25.69,1.09,8.73,1.98
230318,-5.15,-6.36,22.72,1.01,8.73,1.98
230352,-2.14,-3.59,21.33,1.00,8.73,2.00
230388,2.04,-2.95,20.77,0.95,8.73,1.96
230422,5.79,-3.77,19.22,0.93,8.73,1.91
230457,8.77,-3.48,21.04,0.98,8.73,1.90
230492,10.73,-5.85,25.03,0.86,8.73,1.90
230527,13.47,-7.36,28.55,0.81,8.73,1.92
230562,12.67,-5.95,31.68,0.86,8.73,1.82
230597,11.87,-4.91,36.17,0.81,8.73,1.80
230632,8.83,-9.24,38.25,0.92,8.73,1.74
230667,5.76,-5.44,39.13,0.97,8.73,1.69
230702,2.39,-4.88,39.57,0.99,8.73,1.77
230737,-0.41,-8.13,34.91,0.99,8.73,1.80
230772,-3.88,-3.82,35.11,0.98,8.73,1.82
230807,-6.23,-5.64,31.79,0.89,8.73,1.82
230843,-8.46,-3.71,30.95,0.87,8.73,1.80
230877,-4.55,-1.47,27.04,0.86,8.73,1.78
230912,-3.32,-3.18,22.33,0.89,8.73,1.75
230947,-1.17,-1.37,21.34,1.03,8.73,1.76
230982,2.35,-2.32,21.48,1.05,8.73,1.76
231017,5.64,-3.11,19.34,1.05,8.73,1.83
231052,8.34,-4.52,21.53,1.13,8.73,1.84
231087,11.56,-4.19,24.55,1.00,8.73,1.86
231122,13.01,-6.32,27.39,0.97,8.73,1.91
231158,12.82,-7.30,31.11,0.99,8.73,1.85
231192,12.35,-4.23,35.74,0.92,8.73,1.83
231227,8.98,-8.81,37.58,0.95,8.73,1.79
231262,5.49,-6.48,37.47,0.96,8.73,1.71
231297,2.59,-5.42,37.09,0.99,8.73,1.71
231332,-0.87,-6.77,36.34,1.02,8.73,1.77
231368,-4.47,-4.84,36.53,0.95,8.73,1.82
231402,-4.33,-5.39,33.10,0.93,8.73,1.89
231437,-5.04,-5.08,28.91,0.94,8.73,1.85
231472,-5.77,-3.18,27.15,0.84,8.73,1.85
231507,-5.99,-3.67,23.57,0.93,8.73,1.82
231542,-1.35,-1.62,21.29,0.87,8.73,1.79
231577,3.10,-3.08,20.75,0.92,8.73,1.79
231612,5.99,-5.40,20.51,0.96,8.73,1.77
231647,10.21,-3.35,21.42,0.88,8.73,1.84
231682,12.46,-7.14,23.94,0.87,8.73,1.82
231717,12.84,-5.02,27.16,0.80,8.73,1.71
231752,13.63,-5.48,30.04,0.73,8.73,1.62
231786,12.14,-5.72,32.94,0.78,8.73,1.55
231820,9.03,-4.17,35.14,0.86,8.73,1.59
231855,6.11,-5.73,36.47,1.00,8.73,1.76
231890,2.90,-6.85,39.04,1.11,8.73,1.88
231930,-0.28,-3.54,36.05,1.08,8.73,1.91
231965,-5.14,-5.49,38.54,1.20,8.73,1.77
232000,-5.64,-4.70,35.00,1.26,8.73,1.82
232035,-6.19,-5.09,30.56,1.45,8.73,1.95
232070,-5.92,-8.57,25.58,1.40,8.73,2.10
232104,-3.32,-2.69,23.20,1.19,8.73,2.07
232139,-0.27,-4.55,21.34,1.04,8.73,1.90
232174,2.84,-3.76,20.41,1.08,8.73,1.89
232209,6.52,-4.08,19.78,1.08,8.73,1.95
232244,9.27,-5.00,20.87,0.97,8.73,2.04
232279,11.71,-5.94,24.20,0.95,8.73,2.09
232315,12.46,-4.90,27.19,0.76,8.73,2.01
232349,13.14,-7.86,31.03,0.72,8.73,2.00
232384,11.88,-7.65,34.41,0.73,8.73,1.82
232418,9.37,-5.51,37.41,0.63,8.73,1.69
232453,5.99,-6.87,38.34,0.78,8.73,1.59
232488,2.58,-5.70,39.94,0.91,8.73,1.48
232523,-0.09,-4.83,39.73,0.90,8.73,1.65
232558,-3.97,-8.53,36.85,0.87,8.73,1.70
232593,-5.23,-3.72,35.52,0.76,8.73,1.71
232628,-7.02,-1.81,32.48,0.74,8.73,1.56
232663,-5.27,0.47,29.41,0.70,8.73,1.51
232698,-4.32,-2.13,24.16,0.96,8.73,1.43
232733,0.39,1.29,23.08,1.08,8.73,1.31
232768,3.82,0.31,22.30,1.25,8.73,1.34
232803,7.09,0.21,21.56,1.38,8.73,1.48
232839,10.89,-2.33,22.32,1.59,8.73,1.63
232873,12.69,-2.94,26.64,1.71,8.73,1.86
232908,13.91,-4.19,29.74,1.73,8.73,2.05
232943,13.33,-6.61,33.38,1.79,8.73,2.32
232978,11.47,-9.56,34.60,1.66,8.73,2.51
233013,7.82,-10.15,38.04,1.43,8.73,2.60
233048,5.81,-9.99,38.09,1.25,8.73,2.47
233083,2.19,-8.27,41.72,1.19,8.73,2.19
233118,-1.20,-7.98,40.13,1.29,8.73,2.15
233153,-3.78,-9.31,36.14,1.40,8.73,2.20
233188,-5.14,-7.86,30.94,1.41,8.73,2.33
233223,-5.85,-8.91,26.88,1.40,8.73,2.37
233258,-3.55,-6.81,24.84,1.27,8.73,2.60
233293,-3.39,-13.81,20.47,1.19,8.73,2.80
233328,0.11,-8.14,20.50,0.95,8.73,2.74
233362,2.78,-6.94,20.98,0.75,8.73,2.48
233397,6.92,-6.04,20.83,0.72,8.73,2.28
233432,11.00,-2.59,23.80,0.88,8.73,2.08
233467,11.57,-2.43,25.30,0.91,8.73,1.99
233502,12.21,-8.80,28.56,0.95,8.73,2.01
233537,12.65,-5.93,33.12,0.93,8.73,1.89
233572,11.63,-5.07,36.95,0.82,8.73,1.90
233607,8.76,-9.31,40.05,0.89,8.73,1.86
233641,4.95,-5.71,41.48,0.94,8.73,1.77
233676,1.39,-4.67,40.92,0.95,8.73,1.82
233711,-1.98,-6.77,37.22,0.87,8.73,1.85
233746,-4.36,-6.76,34.53,0.97,8.73,1.91
233781,-5.20,-3.74,31.34,0.89,8.73,1.83
233817,-5.80,-2.19,28.32,0.82,8.73,1.85
233851,-3.90,-4.84,24.11,0.94,8.73,1.78
233887,-2.17,1.02,21.99,0.94,8.73,1.68
233921,1.26,-1.09,19.85,1.01,8.73,1.66
233961,4.68,0.18,19.86,1.12,8.73,1.59
233996,8.25,-3.06,21.30,1.12,8.73,1.69
234031,11.19,-4.14,23.39,1.22,8.73,1.74
234066,11.07,-4.58,23.57,1.03,8.73,1.86
234101,11.35,-5.78,30.29,1.05,8.73,1.99
234136,12.06,-8.77,34.82,1.03,8.73,1.94
234171,10.31,-3.87,38.93,0.97,8.73,2.00
234206,6.12,-9.17,39.56,0.99,8.73,2.04
234241,3.45,-8.27,39.66,0.96,8.73,2.09
234276,-0.28,-4.69,39.80,0.99,8.73,1.97
234311,-3.31,-6.20,37.50,0.95,8.73,1.92
234347,-5.42,-6.00,34.34,1.20,8.73,1.92
234382,-6.00,-6.29,30.26,1.17,8.73,1.91
234416,-6.11,-4.46,27.06,1.04,8.73,1.99
234451,-5.73,-6.88,22.32,1.06,8.73,1.94
234486,-1.49,-0.10,21.57,1.03,8.73,1.86
234521,3.73,-1.43,21.74,1.09,8.73,1.75
234556,6.53,-1.52,20.36,1.16,8.73,1.66
234591,7.47,-4.66,22.08,1.26,8.73,1.64
234626,11.81,-2.71,24.51,1.17,8.73,1.82
234661,12.62,-6.12,27.31,1.24,8.73,1.92
234696,13.76,-8.28,32.15,1.16,8.73,1.90
234731,12.67,-4.93,36.60,0.99,8.73,1.88
234766,9.22,-9.22,37.32,0.96,8.73,1.82
234801,6.22,-7.54,37.60,1.04,8.73,1.74
234836,2.85,-6.72,39.30,1.16,8.73,1.69
234871,0.00,-7.81,38.00,1.13,8.73,1.82
234906,-3.62,-7.74,37.80,1.27,8.73,1.90
234941,-5.64,-5.79,35.03,1.15,8.73,1.94
234976,-6.37,-6.58,30.75,1.08,8.73,2.03
235011,-4.65,-7.02,25.81,1.05,8.73,1.97
235046,-3.49,-1.78,23.05,0.96,8.73,1.98
235081,-1.19,-5.30,19.72,0.92,8.73,1.84
235116,2.14,-3.96,19.25,0.92,8.73,1.83
235151,5.34,-2.94,18.97,0.88,8.73,1.91
235186,4.64,-4.19,18.13,0.86,8.73,2.02
235221,10.26,-4.24,24.19,0.97,8.73,1.98
235256,14.43,-6.85,30.63,0.94,8.73,1.96
235291,14.67,-8.10,33.93,0.92,8.73,1.90
235327,12.65,-5.49,35.27,1.00,8.73,1.85
235361,9.23,-5.47,36.73,0.90,8.73,1.89
235396,5.84,-8.45,37.59,0.99,8.73,1.95
235431,2.86,-6.72,39.16,0.99,8.73,1.90
235466,-0.10,-4.52,38.41,0.86,8.73,1.91
235501,-4.29,-7.16,37.07,0.93,8.73,1.92
235536,-5.24,-4.13,34.52,0.96,8.73,1.87
235571,-6.56,-3.73,30.51,1.08,8.73,1.88
235606,-6.51,-7.44,27.93,1.07,8.73,1.93
235641,-6.90,-4.28,24.00,1.08,8.73,2.01
235676,-2.90,-4.07,21.40,0.97,8.73,2.02
235712,2.51,-3.70,21.49,0.95,8.73,1.92
235746,7.70,-3.67,21.38,1.00,8.73,1.85
235781,10.24,-1.35,22.33,1.00,8.73,1.86
235817,12.02,-6.41,25.28,1.10,8.73,1.87
235851,12.48,-5.55,28.23,1.14,8.73,1.86
235886,13.75,-4.76,32.42,1.10,8.73,1.82
235921,12.05,-7.62,34.99,0.99,8.73,1.80
235956,9.63,-7.03,37.97,1.09,8.73,1.69
235996,5.69,-7.00,38.09,1.10,8.73,1.64
236031,2.22,-5.96,38.71,1.20,8.73,1.64
236066,-1.65,-7.41,37.51,1.17,8.73,1.79
236101,-4.13,-7.55,35.69,1.23,8.73,1.93
236136,-4.04,-4.58,32.71,1.18,8.73,1.95
236171,-6.26,-4.62,29.86,1.09,8.73,2.04
236206,-7.10,-5.06,27.48,1.23,8.73,2.06
236241,-4.08,-3.23,24.38,1.05,8.73,2.09
236276,0.89,-6.52,21.07,1.00,8.73,2.13
236311,3.91,-5.36,21.15,0.95,8.73,2.12
236347,6.96,-4.70,21.05,0.87,8.73,2.11
236381,9.63,-6.78,22.01,0.61,8.73,2.19
236416,12.09,-9.24,25.53,0.47,8.73,2.14
236451,13.16,-6.35,29.64,0.38,8.73,1.89
236486,12.90,-2.87,33.92,0.50,8.73,1.74
236521,12.16,-6.28,36.39,0.63,8.73,1.73
236556,9.28,-5.24,38.84,0.80,8.73,1.73
236591,5.28,-6.00,40.46,0.81,8.73,1.78
236626,1.32,-5.94,40.34,0.78,8.73,1.92
236661,-1.22,-5.19,37.39,0.89,8.73,1.82
236696,-4.89,-3.00,36.53,0.87,8.73,1.76
236731,-5.20,-2.95,32.80,1.12,8.73,1.79
236766,-6.03,-5.70,29.03,1.28,8.73,1.82
236801,-4.84,-2.56,26.92,1.27,8.73,1.88
236836,-2.88,-4.86,22.94,1.15,8.73,1.91
236871,2.34,-5.40,21.53,1.21,8.73,1.90
236906,5.86,-4.33,21.06,1.20,8.73,1.89
236941,8.27,-1.60,20.93,1.15,8.73,1.96
236976,10.37,-6.70,22.70,1.21,8.73,2.02
237011,12.50,-4.66,25.40,1.13,8.73,2.05
237046,13.13,-5.66,28.72,1.14,8.73,2.12
237081,12.60,-7.70,32.31,1.21,8.73,2.25
237116,12.01,-7.59,34.87,1.10,8.73,2.39
237151,7.92,-9.48,38.13,1.00,8.73,2.64
237186,4.73,-11.22,39.48,0.84,8.73,2.76
237221,0.90,-9.10,39.38,0.42,8.73,2.71
237256,-1.77,-5.87,39.37,0.24,8.73,2.55
237292,-4.60,-4.85,37.19,0.31,8.73,2.29
237327,-5.11,-3.65,33.07,0.49,8.73,2.11
237361,-6.63,-2.70,28.98,0.70,8.73,2.07
237396,-5.96,-6.30,24.69,0.83,8.73,2.15
237431,-0.81,-5.86,22.09,0.89,8.73,2.19
237466,4.64,-6.28,20.19,0.78,8.73,2.20
237501,7.39,-5.47,20.04,0.66,8.73,2.14
237536,9.14,-6.11,20.57,0.62,8.73,2.06
237571,10.95,-4.47,22.46,0.63,8.73,1.96
237606,9.83,-6.00,23.71,0.73,8.73,1.87
237641,11.91,-7.12,28.24,0.67,8.73,1.76
237676,12.48,-6.77,32.58,0.71,8.73,1.74
237711,10.67,-7.31,36.18,0.85,8.73,1.70
237746,8.84,-5.77,38.73,0.84,8.73,1.56
237781,4.53,-7.51,38.94,0.94,8.73,1.59
237817,0.68,-6.88,39.48,1.01,8.73,1.73
237851,-2.46,-5.81,38.25,0.85,8.73,1.83
237886,-5.21,-6.20,36.01,0.85,8.73,1.90
237921,-6.07,-3.57,32.36,0.75,8.73,1.81
237956,-6.52,-1.50,28.89,0.67,8.73,1.76
237991,-4.28,-4.40,24.15,0.75,8.73,1.61
238031,-0.59,-2.41,20.79,0.79,8.73,1.47
238066,2.86,0.22,19.90,0.97,8.73,1.38
238101,3.97,0.45,20.82,1.10,8.73,1.45
238136,7.04,-1.96,20.89,1.20,8.73,1.58
238171,9.84,-2.39,22.95,1.23,8.73,1.69
238206,13.08,-5.40,25.83,1.16,8.73,1.82
238241,12.78,-7.89,30.14,1.12,8.73,1.88
238276,12.90,-5.14,34.05,1.10,8.73,1.89
238311,9.78,-7.76,35.90,1.04,8.73,1.92
238347,8.19,-7.36,38.10,1.11,8.73,1.94
238381,3.75,-7.29,39.04,1.06,8.73,1.93
238416,0.49,-7.75,38.87,1.02,8.73,2.00
238451,-2.33,-5.43,36.18,1.12,8.73,1.97
238486,-4.52,-6.32,33.05,1.08,8.73,1.96
238521,-6.68,-5.34,29.90,1.09,8.73,2.00
238556,-7.09,-4.48,26.66,1.14,8.73,2.06
238591,-4.95,-7.44,22.84,1.17,8.73,2.15
238626,-2.65,-3.95,20.32,1.09,8.73,2.22
238662,-2.82,-6.70,19.50,0.95,8.73,2.17
238696,4.18,-6.99,20.53,0.84,8.73,2.21
238731,6.53,-3.63,20.65,0.76,8.73,2.13
238766,8.45,-5.92,22.77,0.87,8.73,1.99
238801,13.45,-5.15,27.07,0.73,8.73,1.93
238836,13.41,-4.92,31.23,0.62,8.73,1.90
238871,13.66,-8.53,33.20,0.72,8.73,1.81
238906,11.38,-4.90,35.86,0.73,8.73,1.66
238941,8.44,-7.21,37.14,0.81,8.73,1.60
238976,4.70,-6.70,36.80,0.88,8.73,1.73
239011,1.31,-6.53,37.82,0.77,8.73,1.92
239046,-1.79,-4.67,36.41,0.74,8.73,1.92
239081,-4.14,-6.50,33.72,0.59,8.73,1.89
239116,-4.98,-3.58,30.20,0.54,8.73,1.83
239151,-5.57,-1.12,26.55,0.48,8.73,1.68
239186,-3.98,-1.14,22.27,0.50,8.73,1.52
239221,-7.25,1.76,25.07,0.71,8.73,1.43
239256,-4.43,-1.09,21.19,0.85,8.73,1.44
239291,-0.30,-2.85,19.74,0.93,8.73,1.67
239327,6.84,-2.88,19.67,0.91,8.73,1.76
239361,9.05,-4.70,20.51,0.96,8.73,1.74
239396,11.14,-4.93,23.70,0.92,8.73,1.74
239431,13.41,-6.12,27.83,0.79,8.73,1.77
239466,13.96,-7.18,32.50,0.76,8.73,1.69
239501,12.27,-4.61,35.85,0.80,8.73,1.60
239535,8.63,-6.28,35.05,0.91,8.73,1.58
239570,5.16,-5.40,35.24,1.00,8.73,1.65
239605,2.51,-6.83,37.95,1.01,8.73,1.93
239640,-0.10,-6.54,38.85,0.89,8.73,2.20
239675,-3.24,-4.66,37.75,1.05,8.73,2.00
239710,-5.50,-3.41,34.93,1.32,8.73,1.85
239745,-3.74,-6.51,27.36,1.56,8.73,2.05
239780,-4.15,-11.11,21.97,1.72,8.73,2.41
239815,-3.56,-7.42,19.29,1.61,8.73,2.71
239850,-0.41,-6.30,18.84,1.36,8.73,2.59
239885,-6.68,-5.51,16.87,1.12,8.73,2.12
239920,0.30,-2.89,19.95,1.14,8.73,1.97
239955,6.86,-1.82,22.57,1.26,8.73,2.02
239990,14.52,-3.06,29.30,1.48,8.73,2.01
240025,15.14,-8.95,30.37,1.36,8.73,2.14
240065,14.37,-6.51,32.36,1.06,8.73,2.08
240100,11.99,-10.86,33.39,0.99,8.73,2.00
240134,9.92,-5.55,36.61,0.94,8.73,1.80
240169,5.91,-6.70,36.61,0.98,8.73,1.72
240204,2.68,-7.01,39.45,1.05,8.73,1.65
240239,0.26,-4.71,36.90,1.05,8.73,1.64
240274,-4.90,-6.19,36.92,1.06,8.73,1.65
240309,-5.77,-3.66,34.92,1.12,8.73,1.65
240345,-5.11,-6.25,30.38,1.11,8.73,1.72
240380,-6.51,-5.10,26.69,0.83,8.73,1.60
240414,-2.16,3.27,22.96,0.77,8.73,1.35
240449,3.16,4.42,20.03,0.84,8.73,0.95
240484,2.18,4.38,18.73,1.15,8.73,0.83
240519,5.67,-0.33,20.51,1.40,8.73,1.02
240554,8.62,-2.93,19.24,1.42,8.73,1.33
240589,10.17,-5.89,22.65,1.26,8.73,1.52
240624,13.47,-8.31,26.79,1.02,8.73,1.59
240659,15.13,-5.37,30.13,0.84,8.73,1.46
240694,11.69,-6.20,31.74,0.80,8.73,1.40
240729,9.18,-0.99,32.24,0.92,8.73,1.44
240764,6.74,-8.11,39.67,1.05,8.73,1.88
240798,3.71,-7.47,41.35,1.05,8.73,2.06
240834,-0.44,-5.86,40.21,1.02,8.73,1.93
240868,-3.29,-7.41,35.62,0.84,8.73,1.95
240903,-5.18,-3.37,33.10,0.95,8.73,1.93
240938,-5.57,-4.97,29.74,1.28,8.73,1.94
240973,-6.22,-7.39,26.00,1.38,8.73,2.15
241008,-5.20,-6.56,22.05,1.40,8.73,2.34
241043,-1.07,-8.77,19.66,1.15,8.73,2.33
241078,1.36,-5.77,19.12,1.03,8.73,2.23
241113,6.41,-1.30,20.12,1.05,8.73,2.03
241148,8.75,-1.27,20.49,1.20,8.73,1.90
241183,10.81,-3.07,21.94,1.25,8.73,1.96
241218,7.33,-8.62,22.68,1.50,8.73,1.97
241253,12.36,-6.13,28.44,1.26,8.73,2.04
241288,12.94,-7.31,32.80,1.16,8.73,2.14
241324,11.22,-10.45,38.39,1.03,8.73,2.23
241358,7.39,-7.68,39.94,0.90,8.73,1.98
241393,3.64,-6.58,39.42,0.93,8.73,1.77
241428,0.61,-7.78,38.66,1.02,8.73,1.76
241463,-2.83,-6.88,37.68,1.17,8.73,1.81
241498,-6.44,-6.64,37.48,1.07,8.73,1.90
241533,-5.36,-5.91,33.48,1.10,8.73,1.99
241568,-6.69,-4.96,28.57,1.04,8.73,1.83
241603,-2.11,-0.69,24.70,0.89,8.73,1.67
241638,1.02,-3.54,19.60,0.96,8.73,1.50
241673,6.44,1.01,18.42,1.01,8.73,1.19
241708,5.64,3.81,18.25,1.28,8.73,0.99
241743,7.88,4.43,24.24,1.58,8.73,1.15
241778,11.99,-5.92,25.94,1.64,8.73,1.53
241813,15.23,-7.82,27.15,1.41,8.73,1.71
241848,12.76,-7.25,30.16,1.20,8.73,1.79
241883,11.21,-6.86,32.17,1.02,8.73,1.70
241918,10.60,-10.15,35.15,0.85,8.73,1.47
241953,7.80,-6.35,38.72,1.00,8.73,1.35
241988,4.37,-6.01,40.75,1.15,8.73,1.33
242023,0.05,-9.41,40.47,1.23,8.73,1.60
242058,-2.23,-6.93,37.33,1.30,8.73,1.75
242098,-3.81,-6.78,32.85,1.05,8.73,1.87
242133,-5.94,-5.00,29.21,0.96,8.73,1.78
242168,-5.67,-0.59,27.75,0.89,8.73,1.70
242203,-3.97,-3.22,23.52,0.97,8.73,1.63
242238,-4.36,-2.56,22.76,0.98,8.73,1.54
242273,-0.47,-2.71,21.09,1.06,8.73,1.57
242308,3.32,-2.83,21.27,1.17,8.73,1.69
242344,8.70,-2.10,22.62,1.30,8.73,1.76
242378,13.37,-4.89,26.31,1.31,8.73,1.91
242413,14.12,-7.02,29.37,1.34,8.73,2.02
242448,15.20,-5.95,32.29,1.41,8.73,2.09
242483,12.80,-6.60,35.02,1.47,8.73,2.25
242518,8.54,-9.10,36.79,1.33,8.73,2.44
242553,6.28,-10.30,39.19,1.20,8.73,2.49
242588,2.93,-9.50,40.10,1.07,8.73,2.39
242624,0.43,-6.10,37.29,1.07,8.73,2.23
242658,-4.19,-9.10,36.92,1.11,8.73,2.15
242693,-5.64,-8.55,33.49,1.18,8.73,2.22
242728,-5.51,-6.05,28.72,1.07,8.73,2.19
242763,-3.54,-5.38,24.78,0.90,8.73,2.20
242798,-5.00,-6.30,20.88,0.90,8.73,2.15
242833,-1.12,-5.48,21.13,0.76,8.73,2.23
242868,-0.84,-5.85,18.02,0.68,8.73,2.35
242903,3.03,-4.29,21.44,0.68,8.73,2.20
242938,10.76,-1.63,24.45,0.78,8.73,1.95
242973,14.90,-6.62,28.39,0.95,8.73,1.80
243008,14.96,-7.04,29.06,0.82,8.73,1.72
243043,13.37,-5.30,31.03,0.68,8.73,1.56
243078,11.86,-6.49,33.35,0.68,8.73,1.42
243113,9.78,-5.36,37.17,0.87,8.73,1.27
243148,6.20,-3.57,37.43,0.96,8.73,1.20
243183,2.34,-4.81,38.10,1.09,8.73,1.41
243218,-0.54,-4.24,37.84,1.08,8.73,1.58
243253,-4.96,-5.39,35.43,1.17,8.73,1.60
243288,-5.89,-4.17,32.75,1.24,8.73,1.60
243324,-7.27,-5.06,29.88,1.10,8.73,1.65
243358,-6.39,-4.99,26.97,0.88,8.73,1.60
243394,-8.92,0.83,26.59,0.76,8.73,1.45
243428,-3.43,0.17,23.03,0.90,8.73,1.38
243463,2.60,-1.20,22.79,1.06,8.73,1.47
243498,9.55,-4.70,22.52,1.12,8.73,1.68
243533,11.84,-7.12,21.89,0.82,8.73,1.96
243568,12.53,-8.63,23.86,0.69,8.73,1.93
243603,13.61,-5.12,27.03,0.50,8.73,1.77
243638,13.67,-4.49,30.36,0.50,8.73,1.66
243673,11.57,-6.50,33.60,0.69,8.73,1.56
243709,9.98,-3.71,36.92,0.79,8.73,1.56
243743,6.04,-6.59,37.08,0.92,8.73,1.59
243778,3.03,-5.95,38.16,1.04,8.73,1.60
243813,-0.76,-6.30,36.91,1.04,8.73,1.70
243848,-3.63,-5.21,36.24,1.11,8.73,1.76
243883,-5.45,-6.00,32.59,1.08,8.73,1.83
243918,-8.43,-3.85,33.51,1.14,8.73,1.84
243953,-7.54,-2.05,29.54,1.04,8.73,1.83
243988,-5.31,-4.86,23.27,1.09,8.73,1.96
244023,2.25,-5.95,21.04,1.16,8.73,2.06
244058,5.00,-2.78,19.69,1.06,8.73,1.97
244093,7.11,-1.51,19.78,1.04,8.73,1.93
244133,10.09,-2.49,21.81,1.09,8.73,1.93
244168,11.64,-5.87,22.85,1.13,8.73,1.96
244203,12.25,-5.29,26.48,1.04,8.73,1.97
244238,13.34,-5.95,29.93,0.97,8.73,1.99
244273,12.15,-8.17,32.82,0.95,8.73,1.93
244308,8.95,-5.11,35.64,0.87,8.73,1.90
244344,6.10,-6.30,36.06,0.85,8.73,1.92
244379,2.17,-6.14,37.56,0.77,8.73,1.91
244413,-0.37,-6.85,36.66,0.73,8.73,1.87
244448,-3.32,-6.24,37.99,0.75,8.73,1.86
244483,-6.12,-4.95,36.70,0.78,8.73,1.92
244518,-6.41,-4.23,32.21,0.85,8.73,1.88
244553,-2.06,-2.28,26.77,0.86,8.73,1.77
244588,-2.48,-2.91,21.40,0.76,8.73,1.70
244623,-0.23,-3.10,20.14,0.85,8.73,1.60
244658,0.85,-0.80,18.68,0.87,8.73,1.49
244693,4.55,-1.63,18.77,0.93,8.73,1.55
244728,8.25,-4.25,19.09,0.93,8.73,1.67
244763,10.23,-5.08,24.67,0.83,8.73,1.73
244798,14.72,-5.81,26.19,0.86,8.73,1.70
244834,13.96,-4.46,30.32,0.77,8.73,1.58
244868,13.01,-7.40,33.18,0.76,8.73,1.49
244903,9.87,-4.62,35.22,0.89,8.73,1.38
244938,7.29,-4.72,35.35,1.03,8.73,1.36
244973,3.80,-5.02,37.63,1.21,8.73,1.23
245008,-0.25,-4.84,38.62,1.50,8.73,1.21
245043,-2.14,-4.19,36.25,1.85,8.73,1.22
245078,-5.53,-6.85,34.27,1.97,8.73,1.49
245114,-6.36,-7.02,31.83,1.84,8.73,1.84
245148,-5.32,-7.43,27.71,1.37,8.73,1.89
245183,-2.18,-2.76,22.45,1.09,8.73,1.74
245218,0.54,2.74,19.85,1.09,8.73,1.54
245253,0.91,1.04,18.12,1.17,8.73,1.36
245288,3.35,-1.25,18.50,1.30,8.73,1.45
245324,8.58,-4.13,19.50,1.26,8.73,1.79
245358,12.03,-4.26,22.87,1.20,8.73,1.94
245393,11.20,-10.40,21.81,1.07,8.73,1.95
245428,11.88,-6.56,26.35,0.81,8.73,1.88
245463,12.59,-5.80,28.15,0.78,8.73,1.92
245498,11.74,-9.81,34.15,0.66,8.73,1.71
245568,5.43,-5.14,37.15,0.74,8.73,1.17
245603,2.66,-5.20,36.02,0.70,8.73,1.39
245638,-0.35,-6.61,34.45,0.61,8.73,1.57
245673,-5.86,-7.23,38.96,0.36,8.73,1.72
245708,-4.30,1.73,33.67,0.23,8.73,1.61
245743,-3.49,-3.99,26.39,0.35,8.73,1.30
245778,-4.83,3.40,25.02,0.18,8.73,0.99
245812,-2.85,3.43,21.46,0.54,8.73,0.83
245847,0.34,4.85,20.47,0.88,8.73,0.74
245882,1.24,2.35,17.45,1.17,8.73,0.87
245917,5.36,2.90,20.79,1.45,8.73,1.02
245952,7.14,0.25,20.50,1.70,8.73,1.28
245987,10.79,-6.55,23.10,1.66,8.73,1.67
246057,12.66,-8.38,30.14,1.10,8.73,1.95
246092,12.69,-8.08,34.34,1.05,8.73,1.97
246127,9.34,-7.36,38.08,1.03,8.73,2.10
246167,5.71,-8.93,37.40,0.90,8.73,2.12
246202,3.03,-8.37,34.85,0.62,8.73,2.22
246237,-1.42,-8.00,35.11,0.32,8.73,2.17
246272,-6.13,-7.47,36.75,0.15,8.73,2.07
246307,-3.05,-2.80,30.26,-0.01,8.73,1.80
246343,-9.42,-1.32,28.15,0.04,8.73,1.46
246377,-7.90,0.21,27.42,0.12,8.73,1.15
246412,-5.00,3.77,23.61,0.26,8.73,0.90
246448,-5.70,3.07,20.99,0.64,8.73,0.73
246482,1.54,1.25,22.23,1.00,8.73,0.82
246517,5.97,-1.98,22.27,1.29,8.73,1.20
246552,11.09,-2.55,23.26,1.30,8.73,1.51
246587,13.30,-7.35,27.36,1.29,8.73,1.69
246622,12.20,-8.24,29.64,1.26,8.73,1.83
246657,15.20,-7.75,33.07,1.28,8.73,1.99
246692,10.02,-9.18,35.27,1.31,8.73,2.20
246727,8.77,-10.67,37.40,1.21,8.73,2.40
246762,3.73,-11.49,36.45,1.05,8.73,2.59
246797,1.28,-10.89,37.45,0.67,8.73,2.71
246833,-2.54,-9.22,36.73,0.17,8.73,2.71
246867,-5.24,-7.97,36.43,0.07,8.73,2.46
246902,-5.99,-5.40,32.08,0.08,8.73,2.14
246937,-7.92,-2.71,29.47,0.24,8.73,1.92
246972,-3.29,-3.44,25.51,0.37,8.73,1.78
247007,-1.76,-2.78,21.82,0.65,8.73,1.70
247042,0.07,-1.64,19.79,0.72,8.73,1.56
247077,2.43,-2.55,19.85,0.80,8.73,1.63
247112,7.31,-5.71,20.04,0.89,8.73,1.74
247147,11.26,-5.90,21.99,1.01,8.73,1.77
247182,12.76,-6.51,24.50,1.02,8.73,1.83
247217,13.30,-6.04,28.37,1.16,8.73,1.92
247252,13.41,-3.84,31.99,1.49,8.73,2.23
247287,11.39,-10.22,33.84,1.70,8.73,2.83
247323,8.77,-11.92,36.01,1.43,8.73,3.36
247357,5.07,-13.23,38.36,0.90,8.73,3.40
247393,0.54,-12.59,38.19,0.37,8.73,3.01
247427,-2.29,-7.74,38.33,0.30,8.73,2.53
247462,-5.07,-7.69,35.09,0.16,8.73,2.24
247497,-7.20,-8.22,32.47,0.09,8.73,2.09
247532,-7.97,-8.24,30.13,-0.04,8.73,1.83
247567,-6.12,2.41,28.04,0.18,8.73,1.58
247603,-2.62,2.25,22.60,0.44,8.73,1.40
247637,4.76,-1.07,21.89,0.71,8.73,1.25
247672,7.89,-3.41,20.00,0.91,8.73,1.31
247707,8.61,-3.19,19.13,1.18,8.73,1.29
247742,11.88,-3.94,24.19,1.24,8.73,1.36
247777,13.00,-3.70,25.68,1.44,8.73,1.52
247812,13.22,-4.30,29.73,1.71,8.73,1.77
247847,13.46,-5.92,32.70,1.84,8.73,2.19
247882,9.73,-10.82,33.47,1.75,8.73,2.56
247917,7.84,-12.73,34.74,1.57,8.73,2.59
247952,3.97,-8.59,38.08,1.07,8.73,2.68
247987,-0.66,-13.95,37.28,0.97,8.73,2.60
248022,-1.59,-6.96,36.12,0.75,8.73,2.50
248057,-5.96,-9.59,33.21,0.75,8.73,2.30
248093,-6.22,-8.10,29.10,0.53,8.73,2.18
248128,-6.33,-3.81,25.33,0.39,8.73,1.97
248162,-6.21,-3.66,21.27,0.35,8.73,1.80
248202,-3.21,-1.91,19.42,0.41,8.73,1.53
248237,2.07,-0.93,19.38,0.58,8.73,1.33
248272,5.21,1.24,19.64,0.78,8.73,1.17
248307,9.28,0.64,18.82,1.08,8.73,1.11
248342,11.54,-0.28,21.87,1.35,8.73,1.18
248378,14.18,-4.29,24.41,1.50,8.73,1.35
248412,13.66,-6.04,28.12,1.43,8.73,1.43
248447,12.50,-5.99,30.29,1.31,8.73,1.41
248482,10.29,-9.39,32.64,1.22,8.73,1.24
248517,7.58,-5.40,35.52,1.27,8.73,0.90
248552,4.90,-5.19,37.74,1.59,8.73,0.73
248587,1.98,-4.64,35.60,2.02,8.73,0.86
248622,-1.71,-8.20,33.44,2.17,8.73,1.24
248657,-5.37,-9.03,31.96,2.07,8.73,1.68
248692,-5.53,-9.18,28.73,1.77,8.73,1.99
248727,-6.49,-7.35,25.41,1.40,8.73,2.12
248762,-5.22,-5.16,21.91,1.16,8.73,2.12
248797,-4.82,-5.23,18.78,0.97,8.73,2.07
248833,0.03,-2.02,18.15,0.87,8.73,1.94
248867,3.00,-3.36,16.64,0.81,8.73,1.79
248902,5.33,-3.79,15.93,0.76,8.73,1.78
248937,6.65,-4.07,16.93,0.68,8.73,1.85
248972,10.57,-5.35,20.31,0.58,8.73,1.80
249007,12.01,-4.32,22.68,0.48,8.73,1.71
249042,12.99,-3.31,26.38,0.57,8.73,1.64
249077,11.59,-4.38,30.12,0.72,8.73,1.59
249112,10.30,-5.74,33.56,0.75,8.73,1.49
249147,8.16,-5.01,36.73,0.83,8.73,1.37
249182,4.66,-4.58,38.43,0.98,8.73,1.26
249217,1.34,-3.32,38.45,1.21,8.73,1.21
249252,-2.04,-5.85,35.14,1.39,8.73,1.30
249287,-4.49,-5.47,33.29,1.29,8.73,1.58
249323,-5.98,-3.94,30.79,1.22,8.73,1.73
249357,-5.81,-3.68,25.65,1.05,8.73,1.69
249393,-4.45,-1.84,23.16,0.90,8.73,1.67
249427,-3.18,-2.62,19.79,1.14,8.73,1.91
249461,-0.56,-4.82,18.42,1.12,8.73,2.13
249496,1.67,-4.66,16.58,1.00,8.73,2.32
249531,3.42,-9.05,18.10,0.89,8.73,2.20
249566,10.08,-5.00,18.39,0.76,8.73,2.17
249601,11.06,-5.12,20.26,0.60,8.73,2.14
249636,11.62,-7.74,26.97,0.63,8.73,2.09
249671,13.83,-6.20,31.60,0.57,8.73,1.97
249706,12.26,-6.17,35.14,0.54,8.73,1.86
249741,8.07,-6.87,35.02,0.61,8.73,1.73
249776,5.67,-5.76,37.60,0.68,8.73,1.61
249811,2.38,-6.23,37.61,0.73,8.73,1.62
249846,0.04,-4.62,35.99,0.72,8.73,1.68
249881,-4.61,-6.26,35.23,0.51,8.73,1.72
249916,-3.96,-2.68,30.30,0.41,8.73,1.63
249951,-7.02,0.18,28.98,0.26,8.73,1.38
249986,-5.57,2.58,26.08,0.32,8.73,1.12
250021,-3.93,3.31,21.96,0.48,8.73,0.85
250056,-1.94,4.55,20.77,0.79,8.73,0.70
250091,1.09,3.25,19.38,1.12,8.73,0.70
250126,4.66,5.37,19.75,1.49,8.73,0.82
250161,7.86,-0.29,20.66,1.72,8.73,1.10
250196,12.01,-1.74,22.83,1.78,8.73,1.44
250236,12.97,-5.92,27.32,1.62,8.73,1.76
250271,12.22,-7.56,31.78,1.38,8.73,1.83
250306,13.05,-9.35,34.79,1.16,8.73,1.75
250342,8.80,-5.79,35.49,1.10,8.73,1.62
250376,5.67,-6.56,36.32,1.12,8.73,1.58
250411,2.20,-6.90,38.22,1.20,8.73,1.53
250446,-0.37,-7.68,36.58,1.21,8.73,1.64
250481,-3.32,-5.04,35.44,1.28,8.73,1.74
250516,-5.02,-7.17,31.97,1.24,8.73,1.86
250551,-6.11,-6.52,28.29,1.33,8.73,1.96
250586,-6.55,-6.61,24.99,1.34,8.73,2.12
250621,-2.55,-7.31,21.26,1.26,8.73,2.19
250656,-2.32,-6.15,18.10,1.09,8.73,2.14
250691,0.11,-2.85,17.28,1.03,8.73,1.99
250726,4.16,0.13,18.49,1.09,8.73,1.75
250761,7.13,-0.33,19.61,1.30,8.73,1.64
250796,10.32,-3.00,20.34,1.42,8.73,1.75
250831,11.29,-4.88,25.17,1.41,8.73,1.92
250866,13.82,-7.47,26.92,1.30,8.73,2.06
250901,12.78,-8.13,30.61,1.18,8.73,2.12
250936,11.57,-7.33,33.99,1.08,8.73,2.18
250971,9.00,-8.03,36.05,1.03,8.73,2.31
251006,4.11,-9.43,37.23,0.87,8.73,2.51
251041,1.94,-8.39,38.76,0.64,8.73,2.51
251076,-2.08,-7.70,35.66,0.38,8.73,2.44
251111,-5.30,-3.97,35.61,0.42,8.73,2.18
251146,-7.12,-3.90,32.84,0.74,8.73,1.99
251181,-4.92,-4.03,27.92,0.90,8.73,1.96
251216,-3.66,-7.08,23.52,1.04,8.73,2.07
251251,-3.68,-5.37,20.56,1.05,8.73,2.15
251286,0.57,-4.58,19.88,0.96,8.73,2.11
251322,4.05,-4.74,19.41,0.97,8.73,2.02
251356,6.68,-1.74,19.66,1.09,8.73,1.79
251391,9.83,-2.23,19.97,1.28,8.73,1.71
251426,11.79,-2.07,23.84,1.48,8.73,1.78
251462,13.53,-4.19,25.81,1.61,8.73,1.97
251496,13.30,-7.63,28.42,1.56,8.73,2.17
251531,10.82,-9.68,32.39,1.31,8.73,2.29
251566,9.95,-8.67,34.91,1.08,8.73,2.32
251601,4.78,-10.04,35.98,0.93,8.73,2.39
251636,2.28,-9.52,37.93,0.81,8.73,2.35
251671,-2.17,-8.08,39.10,0.65,8.73,2.37
251706,-2.33,-7.85,35.24,0.51,8.73,2.29
251741,-5.62,-4.50,33.12,0.66,8.73,2.10
251776,-6.03,-4.90,29.66,0.80,8.73,1.96
251811,-5.33,-5.58,25.76,0.83,8.73,1.93
251847,-5.65,-4.03,21.91,0.89,8.73,1.90
251881,0.10,-3.75,19.91,0.82,8.73,1.74
251916,3.32,-1.47,18.60,0.90,8.73,1.56
251951,6.13,-0.39,19.26,1.09,8.73,1.41
251986,10.81,-1.23,20.36,1.28,8.73,1.39
252021,11.52,-4.50,22.99,1.39,8.73,1.50
252056,13.73,-7.51,24.10,1.27,8.73,1.68
252091,12.89,-6.90,28.84,1.19,8.73,1.73
252126,11.22,-7.44,32.24,1.05,8.73,1.76
252161,9.88,-7.08,34.05,1.05,8.73,1.71
252196,6.37,-7.56,36.57,1.04,8.73,1.76
252231,3.78,-7.59,38.23,0.99,8.73,1.85
252271,-0.53,-9.41,37.06,0.94,8.73,1.90
252306,-3.65,-6.26,36.44,0.75,8.73,1.98
252342,-4.84,-5.73,33.62,0.76,8.73,1.89
252376,-6.40,-4.62,29.63,0.76,8.73,1.76
252411,-5.64,-1.70,26.27,0.83,8.73,1.67
252446,-4.24,-2.89,22.61,0.91,8.73,1.54
252481,-0.81,0.15,20.44,0.97,8.73,1.30
252516,1.62,1.78,19.99,1.16,8.73,1.13
252551,5.30,2.85,20.70,1.48,8.73,1.02
252586,6.99,-1.36,18.67,1.71,8.73,1.31
252621,11.10,-1.80,23.24,1.87,8.73,1.64
252656,12.37,-7.82,27.58,1.72,8.73,1.99
252691,12.87,-10.10,30.12,1.55,8.73,2.17
252726,12.42,-9.89,33.65,1.44,8.73,2.29
252761,10.40,-9.81,35.99,1.25,8.73,2.42
252796,5.73,-10.54,36.86,1.07,8.73,2.61
252832,3.00,-10.94,40.09,0.72,8.73,2.77
252866,0.25,-11.60,41.70,0.50,8.73,2.70
252901,-2.73,-8.57,40.47,0.40,8.73,2.51
252937,-5.58,-6.04,36.49,0.53,8.73,2.18
252971,-4.39,-5.21,30.56,0.36,8.73,1.86
253006,-2.24,-1.68,26.81,0.54,8.73,1.67
253041,-2.78,-1.27,24.33,0.71,8.73,1.53
253076,-0.28,0.82,22.24,0.85,8.73,1.24
253111,2.56,1.07,21.26,1.08,8.73,1.03
253146,8.28,-3.72,22.00,1.23,8.73,1.26
253181,9.54,0.13,23.11,1.54,8.73,1.46
253216,12.76,-4.56,26.32,1.79,8.73,1.63
253251,10.96,-6.08,28.21,1.64,8.73,1.94
253286,11.75,-9.25,33.02,1.66,8.73,2.31
253322,12.06,-12.65,39.01,1.66,8.73,2.70
253356,9.43,-13.11,40.43,1.36,8.73,2.87
253391,4.30,-13.74,43.09,0.95,8.73,3.04
253426,-0.18,-12.60,41.64,0.52,8.73,3.06
253461,-3.48,-9.81,38.59,0.32,8.73,2.73
253496,-4.77,-6.42,36.79,0.17,8.73,2.39
253531,-5.41,-4.51,32.63,0.07,8.73,2.04
253566,-4.78,-0.58,28.89,0.15,8.73,1.75
253601,-4.56,-1.15,24.43,0.29,8.73,1.48
253636,0.65,-0.10,21.94,0.54,8.73,1.26
253671,4.75,1.22,21.79,0.82,8.73,1.12
253706,8.99,-1.93,21.61,1.15,8.73,1.13
253741,8.50,-0.23,22.59,1.40,8.73,1.21
253776,11.20,-4.32,26.10,1.50,8.73,1.39
253811,12.14,-5.40,29.26,1.60,8.73,1.62
253847,13.39,-8.80,33.82,1.73,8.73,1.84
253881,11.78,-9.08,38.63,1.63,8.73,2.02
253916,8.20,-9.98,39.98,1.51,8.73,2.12
253951,4.50,-10.21,40.64,1.43,8.73,2.24
253986,0.20,-11.23,39.34,1.46,8.73,2.27
254021,-2.06,-7.69,37.12,1.47,8.73,2.28
254056,-5.13,-9.34,33.96,1.70,8.73,2.27
254091,-4.72,-10.69,29.88,1.71,8.73,2.39
254126,-6.16,-9.67,26.36,1.47,8.73,2.53
254161,-4.42,-12.15,22.62,1.20,8.73,2.53
254196,-2.23,-5.76,20.34,0.92,8.73,2.44
254231,1.71,-6.88,19.60,0.78,8.73,2.38
254266,5.82,-5.56,19.26,0.71,8.73,2.15
254306,8.22,-4.63,18.93,0.68,8.73,1.98
254342,9.61,-4.02,20.89,0.68,8.73,1.84
254376,11.37,-3.67,25.07,0.83,8.73,1.80
254411,13.48,-4.70,27.61,0.98,8.73,1.79
254446,11.98,-6.00,31.05,1.04,8.73,1.94
254481,10.62,-6.66,34.28,1.09,8.73,2.07
254516,8.47,-6.93,37.69,0.99,8.73,2.23
254551,4.53,-10.48,40.07,0.85,8.73,2.56
254586,0.19,-8.29,40.68,0.70,8.73,2.55
254621,-1.81,-5.20,37.05,0.59,8.73,2.33
254656,-3.91,-4.28,33.25,0.71,8.73,2.13
254691,-7.32,-4.57,31.90,1.05,8.73,2.06
254726,-5.68,-5.52,27.56,1.29,8.73,2.26
254761,-5.03,-8.56,23.23,1.49,8.73,2.47
254796,-2.97,-7.94,20.13,1.32,8.73,2.70
254831,-0.57,-9.37,19.80,1.15,8.73,2.68
254866,4.09,-5.58,20.46,1.05,8.73,2.39
254902,8.28,-0.54,21.09,1.19,8.73,2.07
254936,9.96,-0.00,22.77,1.53,8.73,1.91
254971,11.60,-2.98,25.55,1.78,8.73,2.02
255006,12.98,-2.88,29.90,1.92,8.73,2.29
255041,12.73,-10.30,33.65,1.86,8.73,2.65
255076,11.37,-10.73,37.56,1.53,8.73,2.71
255111,8.45,-9.44,39.30,1.13,8.73,2.48
255147,4.11,-9.20,39.77,1.00,8.73,2.30
255181,0.34,-9.79,41.08,1.05,8.73,2.18
255216,-2.63,-6.87,39.30,1.14,8.73,2.12
255251,-4.26,-7.13,35.84,1.02,8.73,2.12
255286,-4.57,-6.67,31.63,0.88,8.73,2.14
255322,-5.13,-6.98,26.92,0.74,8.73,2.03
255356,-3.51,-2.09,23.59,0.76,8.73,1.94
255391,-2.94,-3.10,20.41,0.76,8.73,2.00
255426,1.32,-7.10,20.81,0.82,8.73,2.14
255461,5.05,-7.75,20.39,0.83,8.73,2.13
255496,7.52,-1.82,24.06,0.82,8.73,2.05
255532,12.31,-4.03,26.08,0.97,8.73,1.89
255566,13.68,-2.10,28.96,1.31,8.73,1.87
255601,14.17,-3.13,31.88,1.55,8.73,1.97
255636,11.70,-6.90,34.21,1.53,8.73,2.25
255671,8.75,-10.14,36.47,1.38,8.73,2.26
255706,7.31,-7.93,39.84,1.17,8.73,2.13
255741,2.51,-6.73,39.75,1.14,8.73,2.03
255776,-0.13,-8.02,38.78,1.28,8.73,1.93
255811,-2.41,-7.18,36.68,1.58,8.73,1.94
255847,-4.52,-7.21,33.65,1.70,8.73,2.02
255881,-6.07,-7.72,29.65,1.84,8.73,2.27
255916,-4.78,-10.87,25.17,1.76,8.73,2.42
255951,-4.83,-7.78,21.27,1.41,8.73,2.49
255986,-4.30,-8.81,22.97,1.09,8.73,2.26
256021,1.56,-1.05,20.41,1.01,8.73,2.01
256056,4.91,-2.32,22.42,1.04,8.73,1.96
256091,11.48,-6.72,22.44,1.06,8.73,1.97
256126,13.94,-3.77,25.06,0.97,8.73,1.98
256161,13.14,-7.13,26.01,0.81,8.73,1.92
256196,13.29,-6.92,28.49,0.80,8.73,1.84
256231,11.32,-5.75,33.50,1.06,8.73,1.89
256266,9.35,-3.61,38.68,1.07,8.73,2.02
256301,5.63,-8.22,38.93,1.04,8.73,2.23
256341,2.02,-5.50,38.39,0.81,8.73,2.28
256376,-0.85,-9.45,36.55,0.81,8.73,2.21
256411,-3.13,-2.81,35.55,0.90,8.73,2.10
256446,-4.68,-6.31,31.47,1.10,8.73,2.07
256481,-9.27,-5.65,32.09,1.35,8.73,2.14
256516,-7.28,-6.54,29.65,1.40,8.73,2.35
256551,-6.36,-9.89,24.14,1.35,8.73,2.57
256586,1.87,-7.64,21.84,1.16,8.73,2.47
256621,5.85,-1.91,21.66,1.01,8.73,2.01
256656,9.05,3.51,22.74,1.11,8.73,1.74
256691,10.67,-5.05,21.90,1.27,8.73,1.72
256726,11.39,-4.66,25.05,1.21,8.73,1.85
256761,12.72,-5.50,27.57,0.97,8.73,1.91
256796,12.95,-9.18,30.88,0.85,8.73,1.88
256832,11.68,-8.80,35.29,0.86,8.73,1.66
256866,9.26,-4.90,39.12,0.82,8.73,1.42
256901,5.74,-5.09,39.03,0.98,8.73,1.26
256935,2.58,-3.23,38.62,1.19,8.73,1.04
256970,-0.83,-4.80,36.50,1.42,8.73,1.17
257006,-4.65,-7.86,37.50,1.51,8.73,1.55
257041,-7.10,-4.30,36.09,1.54,8.73,1.77
257075,-7.04,-6.12,32.63,1.35,8.73,1.87
257110,-2.77,-3.90,25.76,1.31,8.73,1.89
257145,-0.84,-1.48,22.33,1.37,8.73,1.94
257180,1.57,-2.84,21.53,1.32,8.73,1.92
257215,1.51,-1.70,20.58,1.25,8.73,1.84
257250,5.29,-3.33,20.40,1.39,8.73,1.82
257285,9.96,-1.91,24.60,1.59,8.73,1.86
257321,13.30,-4.21,27.56,1.47,8.73,1.97
257355,13.47,-7.47,29.91,1.37,8.73,2.18
257391,12.07,-10.78,32.73,1.24,8.73,2.17
257425,11.78,-6.13,37.59,1.02,8.73,2.15
257460,9.15,-8.65,38.31,0.93,8.73,2.07
257495,4.66,-10.59,37.99,0.75,8.73,2.47
257530,0.04,-7.54,42.18,0.62,8.73,2.47
257565,-1.31,-5.16,38.41,0.31,8.73,2.35
257600,-4.19,-5.26,34.93,0.29,8.73,2.18
257635,-5.37,-3.09,32.27,0.43,8.73,1.97
257670,-6.98,-2.55,30.17,0.62,8.73,1.92
257705,-5.23,-4.66,26.81,0.75,8.73,2.02
257740,-2.57,-5.98,22.58,0.93,8.73,2.13
257775,3.14,-4.85,21.61,0.91,8.73,2.16
257810,7.03,-4.64,21.78,0.82,8.73,2.10
257846,8.98,-4.95,20.27,0.72,8.73,2.03
257881,10.91,-4.68,23.86,0.86,8.73,1.98
257915,11.48,-3.62,26.96,0.96,8.73,1.88
257950,13.59,-7.07,30.97,0.92,8.73,1.92
257985,12.87,-10.17,34.71,0.84,8.73,1.80
258020,9.90,-5.30,38.07,0.89,8.73,1.73
258055,6.51,-6.08,39.46,0.91,8.73,1.63
258090,3.43,-6.82,39.81,1.00,8.73,1.74
258125,-0.31,-10.69,39.34,1.02,8.73,1.86
258160,-3.41,-4.23,39.38,1.05,8.73,1.87
258195,-5.20,-6.01,35.48,0.93,8.73,1.85
258230,-8.02,-5.99,32.59,1.00,8.73,1.92
258266,-5.60,-6.68,27.17,1.07,8.73,1.85
258300,-3.91,-0.14,24.22,1.01,8.73,1.83
258336,-0.51,-2.94,20.93,0.99,8.73,1.75
258375,2.38,-0.74,21.14,1.12,8.73,1.66
258410,6.12,-0.31,21.29,1.22,8.73,1.67
258445,9.23,-3.88,21.90,1.43,8.73,1.73
258480,10.81,-1.30,25.22,1.51,8.73,1.92
258515,12.80,-7.02,28.88,1.53,8.73,2.14
258550,12.94,-8.85,33.39,1.45,8.73,2.35
258585,12.52,-9.27,37.00,1.32,8.73,2.48
258620,8.25,-8.67,40.14,1.16,8.73,2.59
258655,5.23,-9.34,39.75,0.97,8.73,2.57
258690,1.83,-9.24,40.41,0.83,8.73,2.53
258725,-1.83,-6.88,38.62,0.83,8.73,2.34
258760,-3.70,-5.37,35.64,0.91,8.73,2.15
258795,-5.69,-5.47,32.09,1.12,8.73,2.11
258831,-5.46,-7.85,27.79,1.23,8.73,2.16
258865,-4.29,-5.95,25.37,1.23,8.73,2.23
258900,-4.16,-6.06,21.60,1.00,8.73,2.16
258935,1.25,-5.44,20.70,1.00,8.73,2.04
258970,4.86,-3.13,20.99,1.01,8.73,1.84
259005,8.03,-1.22,20.28,1.10,8.73,1.74
259040,9.73,-5.31,22.46,1.23,8.73,1.77
259076,12.01,-4.09,26.10,1.22,8.73,1.88
259110,13.13,-6.57,29.82,1.22,8.73,1.95
259145,12.70,-7.91,33.96,1.21,8.73,2.11
259180,11.96,-8.20,36.87,1.31,8.73,2.33
259215,8.62,-8.31,38.84,1.15,8.73,2.49
259250,4.19,-10.41,38.89,1.03,8.73,2.55
259285,0.40,-8.80,39.44,0.89,8.73,2.40
259321,-2.06,-5.65,37.34,0.92,8.73,2.18
259355,-4.96,-7.22,34.52,1.06,8.73,2.11
259390,-6.29,-6.67,31.66,1.13,8.73,2.12
259425,-8.94,-5.73,29.03,1.12,8.73,2.16
259460,-6.05,-8.83,24.68,1.01,8.73,2.14
259495,-2.83,-1.22,22.11,0.85,8.73,1.85
259530,1.82,1.28,20.97,0.85,8.73,1.56
259565,4.64,1.03,20.44,1.03,8.73,1.44
259600,7.39,-1.64,21.22,1.21,8.73,1.44
259635,10.35,-3.02,22.98,1.23,8.73,1.56
259670,12.45,-5.44,25.90,1.21,8.73,1.68
259705,13.09,-6.32,30.33,1.13,8.73,1.67
259740,12.67,-6.17,34.25,1.07,8.73,1.70
259775,10.82,-8.32,36.20,1.15,8.73,1.63
259810,8.64,-4.65,38.61,1.12,8.73,1.56
259845,4.70,-6.96,38.48,1.24,8.73,1.63
259879,0.99,-6.94,37.73,1.42,8.73,1.62
259914,-2.53,-5.61,37.24,1.47,8.73,1.69
259949,-4.93,-7.85,35.20,1.57,8.73,1.90
259984,-5.49,-7.07,31.33,1.54,8.73,2.10
260019,-5.60,-6.86,27.15,1.50,8.73,2.31
260054,-4.13,-9.28,23.14,1.41,8.73,2.50
260089,-3.32,-8.84,20.29,1.28,8.73,2.66
260123,0.45,-10.01,19.15,1.01,8.73,2.75
260158,5.46,-9.95,19.82,0.72,8.73,2.79
260193,7.97,-9.65,19.50,0.48,8.73,2.67
260228,10.14,-7.66,21.60,0.34,8.73,2.48
260263,12.36,-5.99,24.90,0.31,8.73,2.26
260298,13.17,-5.12,29.47,0.40,8.73,2.07
260334,13.30,-5.15,32.91,0.52,8.73,2.05
260368,10.88,-6.39,35.84,0.70,8.73,2.13
260408,7.55,-7.44,37.41,0.72,8.73,2.26
260443,3.74,-6.99,38.94,0.54,8.73,2.20
260478,0.54,-6.70,39.33,0.28,8.73,2.12
260513,-2.84,-3.97,37.29,0.22,8.73,1.95
260548,-5.20,-5.24,35.03,-0.02,8.73,1.81
260583,-5.48,-0.63,30.80,-0.17,8.73,1.56
260619,-5.76,2.27,28.57,-0.26,8.73,1.14
260653,-3.87,6.18,25.72,-0.09,8.73,0.83
260688,-2.98,6.20,22.88,0.35,8.73,0.69
260722,0.41,4.47,20.86,0.79,8.73,0.85
260757,5.23,-0.20,19.99,0.99,8.73,1.22
260792,8.31,-2.85,20.56,0.99,8.73,1.49
260827,10.97,-5.28,22.11,0.95,8.73,1.61
260862,11.58,-5.31,26.00,0.99,8.73,1.63
260897,13.06,-5.37,28.43,0.92,8.73,1.58
260932,12.26,-6.62,31.91,0.88,8.73,1.56
260967,10.65,-7.44,35.24,0.99,8.73,1.42
261003,8.47,-4.43,38.19,1.03,8.73,1.33
261037,4.52,-7.34,39.70,1.28,8.73,1.44
261072,0.98,-6.98,39.96,1.55,8.73,1.50
261108,-1.17,-6.66,35.25,1.50,8.73,1.76
261142,-4.07,-8.03,32.87,1.57,8.73,1.93
261177,-4.57,-6.64,28.54,1.48,8.73,2.06
261212,-5.81,-6.07,26.41,1.33,8.73,2.20
261247,-5.01,-6.78,23.28,1.20,8.73,2.25
261282,-4.02,-6.20,20.37,1.03,8.73,2.27
261318,0.07,-5.51,19.59,0.91,8.73,2.18
261352,3.67,-3.91,18.91,0.79,8.73,2.02
261387,6.04,-3.33,19.04,0.77,8.73,1.91
261422,10.23,-2.49,21.88,0.78,8.73,1.80
261457,12.30,-5.14,23.06,0.78,8.73,1.77
261492,11.76,-4.79,26.91,0.68,8.73,1.67
261527,13.05,-4.97,30.17,0.64,8.73,1.60
261562,11.59,-5.94,34.28,0.72,8.73,1.42
261597,9.50,-3.45,37.82,0.78,8.73,1.27
261631,5.27,-4.36,37.90,0.98,8.73,1.23
261666,2.76,-4.57,38.84,1.20,8.73,1.29
261702,-0.85,-4.92,36.24,1.36,8.73,1.42
261736,-4.26,-5.56,35.92,1.43,8.73,1.63
261771,-4.80,-4.83,31.12,1.41,8.73,1.80
261806,-6.58,-5.85,27.99,1.34,8.73,1.92
261842,-5.71,-3.58,24.97,1.29,8.73,2.04
261876,-4.59,-6.18,21.05,1.22,8.73,2.16
261910,-0.95,-4.89,19.37,1.12,8.73,2.26
261944,2.35,-4.92,18.15,0.95,8.73,2.32
261979,4.84,-7.87,18.50,0.77,8.73,2.36
262014,8.48,-7.62,20.45,0.58,8.73,2.34
262049,10.78,-6.64,24.45,0.40,8.73,2.21
262084,12.88,-4.65,27.32,0.42,8.73,2.03
262119,12.33,-5.23,32.21,0.54,8.73,1.88
262154,12.77,-5.13,36.33,0.67,8.73,1.85
262189,9.17,-5.52,38.79,0.76,8.73,1.79
262223,5.85,-4.84,39.34,0.76,8.73,1.66
262258,2.41,-4.40,39.30,0.90,8.73,1.48
262293,-0.38,-4.18,36.45,1.17,8.73,1.34
262329,-4.07,-3.31,35.43,1.38,8.73,1.38
262364,-5.68,-5.97,32.26,1.42,8.73,1.58
262398,-6.85,-5.29,29.77,1.30,8.73,1.68
262438,-4.95,-3.25,25.45,1.11,8.73,1.63
262473,-3.20,0.62,22.70,1.02,8.73,1.55
262507,-0.62,-0.28,20.74,1.18,8.73,1.55
262542,1.91,0.07,19.73,1.29,8.73,1.56
262577,7.16,-1.06,19.45,1.31,8.73,1.75
262612,9.73,-3.21,20.23,1.35,8.73,1.85
262647,11.27,-5.86,23.10,1.24,8.73,1.96
262682,12.32,-5.16,26.34,1.16,8.73,2.01
262717,13.04,-6.25,29.68,1.06,8.73,2.05
262752,11.93,-8.73,32.74,0.99,8.73,2.00
262787,9.53,-5.53,36.03,0.82,8.73,1.79
262822,5.75,-6.15,35.74,0.81,8.73,1.56
262857,3.09,-4.85,37.42,0.96,8.73,1.36
262892,-0.72,-5.88,36.87,1.10,8.73,1.37
262927,-3.58,-6.03,36.05,1.18,8.73,1.49
262962,-5.76,-5.88,33.36,1.11,8.73,1.65
262997,-5.78,-4.96,29.77,1.02,8.73,1.66
263032,-5.50,-2.85,26.30,0.87,8.73,1.60
263067,-5.61,-0.44,23.30,0.90,8.73,1.51
263101,-1.17,-1.35,21.69,0.97,8.73,1.48
263135,0.93,0.17,18.17,1.11,8.73,1.51
263170,4.69,-1.66,19.61,1.20,8.73,1.59
263205,8.67,-3.20,20.59,1.23,8.73,1.75
263240,10.89,-4.62,22.70,1.15,8.73,1.87
263275,12.68,-6.38,25.60,1.15,8.73,1.95
263310,12.90,-6.33,28.66,1.10,8.73,1.96
263346,11.79,-7.02,31.71,1.08,8.73,2.05
263380,11.92,-7.61,35.44,1.07,8.73,2.09
263415,8.81,-7.89,37.42,0.98,8.73,2.14
263450,4.75,-9.19,39.33,0.91,8.73,2.24
263485,0.62,-7.49,38.93,0.75,8.73,2.23
263520,-2.52,-6.23,38.24,0.51,8.73,2.21
263555,-3.89,-5.15,33.97,0.38,8.73,2.08
263590,-5.05,-3.12,32.46,0.32,8.73,1.87
263625,-7.73,-2.75,29.94,0.31,8.73,1.68
263660,-5.31,-1.08,26.98,0.48,8.73,1.58
263695,-2.47,0.59,23.59,0.61,8.73,1.51
263729,1.09,-0.44,20.62,0.76,8.73,1.52
263764,5.49,-3.00,20.84,0.83,8.73,1.62
263799,8.90,-3.99,21.36,0.86,8.73,1.67
263835,11.32,-6.48,23.31,0.70,8.73,1.75
263869,12.55,-9.56,25.59,0.50,8.73,1.80
263904,13.05,-6.12,29.23,0.29,8.73,1.61
263939,12.60,-5.47,33.09,0.42,8.73,1.54
263974,10.70,-7.74,36.09,0.69,8.73,1.46
264009,8.63,-5.21,38.75,0.82,8.73,1.56
264044,4.51,-7.47,38.47,0.93,8.73,1.78
264079,0.76,-7.48,38.36,0.87,8.73,1.96
264114,-1.68,-6.91,37.11,0.71,8.73,2.03
264149,-5.31,-6.17,35.51,0.74,8.73,1.99
264184,-6.58,-4.57,32.58,0.70,8.73,1.91
264219,-6.17,-3.82,28.42,0.77,8.73,1.91
264254,-4.76,-5.18,24.27,0.94,8.73,1.91
264289,-1.62,-0.93,21.96,0.92,8.73,1.88
264324,1.93,-3.46,19.91,0.94,8.73,1.80
264358,5.03,-3.02,20.29,0.98,8.73,1.69
264394,7.04,-2.71,20.26,1.06,8.73,1.66
264428,9.57,-2.94,22.00,1.16,8.73,1.70
264468,12.09,-5.49,26.09,1.21,8.73,1.82
264503,12.58,-6.34,29.76,1.14,8.73,1.86
264538,12.94,-5.91,33.65,1.05,8.73,1.92
264573,10.35,-9.17,36.14,1.01,8.73,1.91
264608,8.58,-6.80,39.07,1.01,8.73,1.90
264643,4.05,-7.27,39.37,0.94,8.73,1.98
264678,0.27,-8.01,39.74,0.92,8.73,2.03
264713,-3.02,-7.58,37.37,0.99,8.73,1.99
264748,-5.48,-5.73,35.33,0.81,8.73,1.98
264783,-6.66,-4.86,31.86,0.81,8.73,2.01
264818,-6.27,-6.98,26.71,0.85,8.73,1.95
264853,-3.39,-1.40,23.43,0.82,8.73,1.95
264888,-0.66,-5.73,20.02,0.84,8.73,1.98
264923,2.88,-5.38,18.99,0.90,8.73,2.10
264958,1.90,-7.35,20.31,0.77,8.73,2.16
264993,6.39,-9.80,20.07,0.49,8.73,2.34
265028,9.47,-5.19,22.03,0.35,8.73,2.23
265063,11.98,-6.10,26.25,0.59,8.73,2.02
265098,13.78,-6.19,30.86,0.66,8.73,1.90
265133,12.94,-2.91,34.96,0.79,8.73,1.90
265168,10.04,-7.00,36.08,0.77,8.73,2.02
265203,7.97,-8.15,38.57,0.86,8.73,2.14
265238,3.90,-7.27,39.97,0.75,8.73,2.19
265273,0.28,-8.62,39.96,0.57,8.73,2.24
265308,-2.91,-6.19,37.73,0.54,8.73,2.14
265344,-4.30,-4.91,34.30,0.34,8.73,2.01
265378,-5.71,-3.22,30.73,0.21,8.73,1.85
265414,-6.58,-1.63,27.53,0.24,8.73,1.60
265448,-4.37,-0.09,24.45,0.40,8.73,1.59
265483,-4.48,-2.78,21.69,0.69,8.73,1.70
265518,2.68,-3.62,21.16,0.80,8.73,1.85
265553,6.80,-5.34,21.40,0.75,8.73,1.97
265589,7.69,-6.29,21.62,0.72,8.73,2.00
265623,11.81,-5.08,24.79,0.82,8.73,1.91
265658,13.33,-4.13,28.48,0.83,8.73,1.79
265693,13.82,-5.97,30.99,0.94,8.73,1.81
265728,12.67,-9.67,33.67,1.02,8.73,1.72
265763,9.75,-3.47,36.85,0.88,8.73,1.51
265798,6.96,-7.11,38.14,0.94,8.73,1.30
265832,3.40,-5.76,40.07,1.16,8.73,1.25
265867,0.75,-4.65,39.39,1.28,8.73,1.45
265903,-3.96,-9.28,37.33,1.24,8.73,1.65
265937,-5.77,-5.05,35.59,1.08,8.73,1.79
265972,-6.11,-5.19,31.71,0.88,8.73,1.81
266007,-6.47,-4.01,27.99,0.74,8.73,1.75
266042,-4.62,0.61,25.06,0.88,8.73,1.75
266077,-1.63,-3.60,22.22,0.89,8.73,1.77
266112,1.46,-5.21,20.27,0.99,8.73,1.93
266147,4.34,-4.35,19.83,0.98,8.73,1.94
266182,8.56,-3.68,21.59,0.86,8.73,1.99
266217,11.64,-7.57,24.70,0.83,8.73,1.99
266252,13.62,-4.70,27.92,0.91,8.73,1.89
266287,13.74,-4.69,31.15,0.89,8.73,1.86
266323,11.98,-9.10,33.37,0.84,8.73,1.82
266357,9.52,-5.31,35.86,0.85,8.73,1.71
266393,6.56,-6.02,37.65,0.82,8.73,1.66
266427,3.23,-7.21,39.85,0.90,8.73,1.66
266462,-0.16,-5.72,40.40,0.98,8.73,1.74
266502,-3.48,-5.37,37.55,0.90,8.73,1.81
266537,-4.93,-3.81,34.24,0.70,8.73,1.78
266572,-6.24,-3.62,32.10,0.66,8.73,1.74
266607,-6.25,-1.88,28.94,0.70,8.73,1.54
266642,-4.96,2.58,25.24,0.69,8.73,1.45
266678,-1.26,-1.07,21.78,0.92,8.73,1.46
266712,2.07,-1.86,20.83,1.06,8.73,1.53
266747,6.07,-2.21,21.10,1.16,8.73,1.59
266782,10.18,-3.01,21.78,1.11,8.73,1.71
266817,11.78,-7.06,25.25,1.13,8.73,1.79
266852,13.94,-5.41,27.71,1.00,8.73,1.76
266887,13.19,-6.52,30.93,0.92,8.73,1.74
266922,11.87,-8.43,33.74,0.89,8.73,1.62
266957,9.56,-4.69,36.18,0.80,8.73,1.45
266992,6.03,-7.22,36.81,0.91,8.73,1.48
267027,2.93,-6.72,39.26,1.21,8.73,1.42
267062,-0.77,-6.30,39.54,1.24,8.73,1.54
267097,-3.61,-8.15,37.39,1.37,8.73,1.70
267132,-5.77,-5.92,34.71,1.33,8.73,1.78
267167,-6.34,-6.04,29.82,1.31,8.73,1.86
267202,-5.70,-6.58,26.37,1.20,8.73,1.82
267237,-5.36,-1.14,23.25,1.09,8.73,1.78
267272,-1.62,-2.68,21.34,1.06,8.73,1.65
267307,2.64,-0.12,19.69,1.17,8.73,1.52
267342,7.11,1.37,21.26,1.40,8.73,1.36
267377,10.16,1.56,21.72,1.65,8.73,1.41
267412,11.49,-1.07,25.14,1.87,8.73,1.58
267447,13.17,-6.76,26.02,1.83,8.73,1.84
267482,12.76,-9.72,29.53,1.48,8.73,2.01
267517,12.22,-9.02,33.52,1.17,8.73,1.90
267552,9.93,-6.48,37.29,0.94,8.73,1.70
267587,6.06,-7.93,37.59,1.03,8.73,1.69
267622,2.77,-7.53,39.01,1.10,8.73,1.79
267657,0.03,-5.17,38.71,0.99,8.73,1.97
267692,-3.65,-8.13,36.23,0.99,8.73,2.00
267727,-4.83,-3.91,33.32,1.07,8.73,1.93
267762,-6.07,-5.31,29.11,1.21,8.73,1.96
267797,-6.62,-8.23,25.32,1.26,8.73,2.08
267833,-4.08,-5.77,22.09,1.21,8.73,2.19
267867,-2.12,-7.10,18.50,1.09,8.73,2.23
267902,2.03,-4.61,19.13,1.03,8.73,2.14
267937,6.34,-2.17,19.31,1.08,8.73,2.02
267972,9.26,-3.68,19.59,1.20,8.73,1.98
268007,10.90,-2.81,22.98,1.27,8.73,2.03
268042,10.70,-2.13,24.72,1.46,8.73,2.11
268077,12.54,-7.39,29.64,1.61,8.73,2.29
268113,13.56,-5.79,34.90,1.66,8.73,2.59
268147,8.34,-10.15,35.87,1.42,8.73,2.80
268182,6.48,-10.24,39.00,1.13,8.73,2.74
268217,2.31,-8.56,38.54,0.87,8.73,2.55
268252,0.06,-7.43,37.36,0.80,8.73,2.34
268287,-3.71,-5.72,36.97,0.93,8.73,2.15
268323,-5.87,-6.69,34.06,1.02,8.73,2.09
268357,-6.14,-7.19,29.60,1.09,8.73,2.15
268393,-5.87,-6.80,25.45,1.08,8.73,2.20
268427,-4.37,-6.33,21.32,0.89,8.73,2.23
268462,-1.47,-4.68,19.31,0.83,8.73,2.12
268497,0.40,-3.69,19.60,0.78,8.73,2.08
268537,4.92,-4.41,19.75,0.78,8.73,2.02
268573,8.94,-4.35,19.63,0.81,8.73,1.98
