timestamp,accelX,accelY,accelZ,gyroX,gyroY,gyroZ
298847,-3.63,-4.86,33.55,0.50,8.73,1.92
298881,-4.25,-2.45,30.59,0.60,8.73,1.75
298915,-5.31,-1.46,27.16,0.69,8.73,1.66
298950,-6.95,-2.42,23.94,0.90,8.73,1.71
298990,-4.60,-4.25,20.86,1.13,8.73,1.93
299025,-5.09,-4.04,18.37,1.07,8.73,2.01
299060,-2.42,-4.77,16.27,0.99,8.73,2.17
299095,0.69,-3.96,16.15,0.95,8.73,2.20
299130,3.87,-4.06,16.63,0.94,8.73,2.08
299165,8.94,-6.93,18.59,0.85,8.73,2.09
299200,10.25,-4.11,22.49,0.82,8.73,2.06
299234,11.75,-3.47,25.43,0.93,8.73,2.02
299269,12.60,-5.54,28.70,1.06,8.73,2.08
299304,11.35,-5.84,32.68,1.12,8.73,2.18
299339,8.87,-7.30,35.85,1.12,8.73,2.35
299374,6.25,-8.73,37.61,1.03,8.73,2.40
299409,2.07,-8.56,37.24,0.91,8.73,2.35
299444,-0.33,-6.17,36.38,0.80,8.73,2.20
299479,-3.35,-6.15,34.34,0.84,8.73,2.05
299514,-5.67,-5.44,32.13,0.77,8.73,2.00
299548,-7.26,-5.12,29.85,0.70,8.73,1.96
299583,-9.16,-3.71,27.98,0.59,8.73,1.91
299618,-5.74,-1.16,25.43,0.68,8.73,1.90
299653,-2.04,-4.39,21.69,0.72,8.73,1.97
299688,2.22,-6.69,19.85,0.74,8.73,2.15
299723,5.90,-5.46,19.20,0.56,8.73,2.28
299758,8.38,-6.85,20.01,0.39,8.73,2.22
299793,9.96,-6.28,22.75,0.34,8.73,2.07
299828,12.47,-2.06,26.60,0.48,8.73,1.85
299863,13.08,-4.11,30.31,0.64,8.73,1.80
299898,12.21,-6.07,34.00,0.82,8.73,1.74
299933,10.33,-4.97,36.70,0.88,8.73,1.71
299968,7.57,-7.28,39.25,0.92,8.73,1.69
300003,3.61,-6.54,39.91,1.08,8.73,1.65
300038,0.31,-4.32,41.00,1.31,8.73,1.58
300073,-3.17,-5.71,39.38,1.48,8.73,1.64
300108,-5.31,-6.47,36.69,1.73,8.73,1.82
300143,-7.41,-8.02,33.42,1.73,8.73,2.06
300178,-7.26,-7.62,29.94,1.71,8.73,2.34
300213,-4.61,-8.10,26.23,1.54,8.73,2.53
300248,-0.70,-8.75,23.19,1.37,8.73,2.61
300283,2.65,-6.50,21.97,1.16,8.73,2.55
300318,6.58,-4.81,23.83,1.09,8.73,2.39
300353,11.14,-2.68,24.92,1.26,8.73,2.26
300388,12.85,-4.31,27.60,1.35,8.73,2.27
300423,13.23,-4.93,31.75,1.43,8.73,2.37
300458,12.72,-7.75,34.50,1.36,8.73,2.53
300492,13.07,-10.72,37.56,1.16,8.73,2.58
300527,8.78,-7.79,39.85,0.96,8.73,2.57
300562,4.75,-9.02,39.98,0.79,8.73,2.56
300597,1.29,-6.65,40.85,0.61,8.73,2.45
300632,-2.04,-5.50,39.87,0.66,8.73,2.16
300667,-4.27,-5.36,38.04,0.76,8.73,1.99
300702,-5.08,-5.42,34.63,0.81,8.73,1.93
300737,-7.78,-2.91,33.32,0.93,8.73,1.93
300772,-4.58,-4.37,29.56,0.92,8.73,1.89
300807,-0.88,-3.27,24.82,0.98,8.73,1.82
300842,3.00,-2.37,22.45,1.04,8.73,1.74
300877,6.40,-1.76,22.65,1.14,8.73,1.71
300913,7.55,-2.23,22.94,1.26,8.73,1.74
300947,10.02,-4.75,25.14,1.28,8.73,1.85
300982,12.76,-6.99,30.11,1.16,8.73,1.97
301022,13.46,-7.24,35.07,1.08,8.73,2.01
301057,11.73,-8.23,38.58,1.10,8.73,2.06
301092,8.30,-8.51,41.06,1.08,8.73,2.05
301127,5.69,-8.70,41.82,1.10,8.73,2.09
301162,1.43,-7.84,42.65,1.12,8.73,2.05
301197,-2.33,-8.36,41.83,1.24,8.73,2.01
301232,-3.65,-6.91,38.26,1.30,8.73,2.07
301267,-4.08,-7.67,32.98,1.31,8.73,2.14
301302,-5.48,-6.14,29.55,1.32,8.73,2.24
301338,-4.39,-6.63,26.76,1.19,8.73,2.35
301372,-1.04,-6.65,24.09,1.10,8.73,2.25
301407,2.16,-4.28,24.07,1.04,8.73,2.11
301442,5.79,-2.93,23.93,1.14,8.73,1.96
301477,9.90,-1.34,25.36,1.31,8.73,1.90
301512,12.65,-3.93,27.76,1.42,8.73,1.95
301547,13.75,-4.76,30.58,1.49,8.73,2.05
301582,13.79,-6.13,34.28,1.45,8.73,2.22
301617,11.62,-9.54,37.36,1.31,8.73,2.30
301652,9.82,-7.99,40.59,1.16,8.73,2.26
301687,6.05,-8.14,42.59,1.05,8.73,2.15
301722,2.06,-7.86,43.34,1.08,8.73,1.97
301757,-0.56,-6.65,40.75,1.22,8.73,1.95
301792,-3.62,-6.65,38.04,1.22,8.73,1.99
301827,-3.09,-6.68,32.97,1.24,8.73,2.06
301862,-4.96,-5.94,29.37,1.12,8.73,2.09
301897,-5.12,-5.72,26.58,1.09,8.73,2.05
301932,-2.11,-3.43,24.89,1.05,8.73,2.06
301967,1.93,-5.47,22.94,1.04,8.73,2.07
302002,6.37,-4.51,22.97,1.01,8.73,2.16
302037,8.93,-7.12,22.82,0.94,8.73,2.22
302072,10.47,-6.37,24.47,0.97,8.73,2.18
302107,13.20,-8.02,28.49,0.99,8.73,2.13
302142,13.70,-4.83,33.24,1.03,8.73,2.14
302177,12.93,-6.52,36.89,1.12,8.73,2.33
302212,9.59,-8.36,39.24,1.05,8.73,2.43
302247,6.24,-9.53,40.64,0.91,8.73,2.50
302283,2.77,-8.68,42.20,0.75,8.73,2.46
302318,-0.18,-8.19,41.48,0.70,8.73,2.33
302352,-3.76,-6.13,40.51,0.73,8.73,2.15
302387,-5.91,-6.28,36.43,0.82,8.73,2.04
302422,-5.93,-4.84,32.03,0.91,8.73,2.02
302457,-5.46,-6.25,28.09,0.91,8.73,1.98
302492,-4.65,-3.50,25.14,0.94,8.73,1.93
302527,0.10,-2.69,24.37,0.95,8.73,1.84
302562,5.02,-2.70,24.41,1.05,8.73,1.79
302597,9.14,-1.87,23.75,1.15,8.73,1.82
302632,11.52,-5.27,26.09,1.36,8.73,1.81
302667,13.86,-4.01,29.34,1.49,8.73,1.92
302702,13.64,-6.77,31.88,1.56,8.73,2.10
302737,12.68,-10.42,35.04,1.49,8.73,2.24
302772,10.52,-8.51,38.23,1.30,8.73,2.28
302807,5.94,-9.15,39.54,1.12,8.73,2.22
302843,3.60,-8.61,40.72,1.02,8.73,2.19
302877,0.05,-8.71,41.66,0.99,8.73,2.22
302912,-3.52,-7.64,39.99,0.91,8.73,2.20
302947,-5.74,-6.86,36.60,0.84,8.73,2.15
302983,-5.77,-6.32,32.64,0.80,8.73,2.11
303018,-5.78,-5.23,29.27,0.80,8.73,2.05
303057,-2.58,-5.07,25.81,0.81,8.73,2.02
303092,0.04,-5.13,23.38,0.81,8.73,1.99
303128,4.21,-5.26,23.47,0.77,8.73,2.00
303162,7.73,-4.67,23.22,0.81,8.73,1.90
303197,11.05,-5.12,24.04,0.81,8.73,1.86
303232,13.05,-5.12,28.22,0.85,8.73,1.80
303267,13.58,-4.92,31.41,0.90,8.73,1.74
303302,13.27,-7.09,34.30,0.95,8.73,1.70
303337,11.04,-5.55,37.34,1.04,8.73,1.72
303372,8.48,-7.86,38.69,1.10,8.73,1.80
303407,4.45,-7.77,39.86,1.15,8.73,1.93
303442,0.62,-7.46,41.13,1.18,8.73,1.97
303477,-2.44,-6.18,39.79,1.11,8.73,2.06
303512,-4.76,-6.46,36.80,1.09,8.73,2.08
303547,-4.78,-6.06,32.54,1.00,8.73,2.11
303582,-5.19,-3.57,28.40,0.92,8.73,2.04
303617,-3.17,-2.87,26.20,0.77,8.73,1.93
303652,-2.28,-3.84,23.03,0.78,8.73,1.85
303687,1.69,-4.46,21.95,0.78,8.73,1.96
303722,5.95,-7.07,21.32,0.69,8.73,2.05
303757,9.28,-7.43,21.72,0.45,8.73,2.15
303792,11.58,-8.75,24.83,0.19,8.73,2.04
303827,13.23,-8.21,27.97,-0.01,8.73,1.82
303862,12.99,-5.05,31.98,0.04,8.73,1.47
303897,12.12,-2.67,35.98,0.27,8.73,1.29
303932,9.59,-4.02,39.20,0.55,8.73,1.27
303967,6.35,-4.71,40.32,0.81,8.73,1.42
304002,2.87,-6.13,40.80,0.90,8.73,1.66
304037,-0.75,-5.64,42.39,0.86,8.73,1.79
304072,-3.79,-5.99,40.18,0.89,8.73,1.82
304107,-5.75,-3.76,36.47,0.99,8.73,1.83
304142,-5.25,-3.96,30.95,1.05,8.73,1.84
304177,-4.74,-2.82,28.04,1.14,8.73,1.92
304212,-1.66,-3.25,24.26,1.16,8.73,2.09
304247,1.20,-5.27,21.51,1.15,8.73,2.20
304282,3.53,-5.19,21.64,1.06,8.73,2.20
304318,6.28,-4.29,21.82,1.07,8.73,2.10
304352,9.58,-2.57,23.37,1.11,8.73,2.04
304387,12.84,-4.48,26.83,1.21,8.73,2.04
304422,13.68,-7.41,29.87,1.17,8.73,2.06
304457,13.53,-7.00,33.03,1.04,8.73,2.05
304492,11.27,-7.61,36.14,0.87,8.73,1.99
304527,8.34,-7.01,38.40,0.89,8.73,1.90
304562,4.82,-6.13,40.78,0.89,8.73,1.88
304598,1.20,-5.78,41.58,0.87,8.73,1.94
304632,-1.75,-6.62,38.98,0.88,8.73,1.91
304667,-3.58,-4.02,35.41,0.93,8.73,1.87
304702,-5.92,-3.50,32.54,1.03,8.73,1.84
304737,-5.91,-3.71,28.92,1.02,8.73,1.86
304772,-5.04,-3.93,25.14,1.04,8.73,1.90
304807,-2.31,-3.59,22.93,1.08,8.73,1.98
304842,1.96,-3.63,22.19,1.08,8.73,1.96
304877,5.64,-1.57,22.02,1.09,8.73,1.88
304912,7.92,-3.24,22.28,1.23,8.73,1.87
304947,10.97,-4.39,24.49,1.24,8.73,1.92
304982,13.28,-6.72,27.44,1.19,8.73,1.99
305017,13.43,-7.45,31.40,1.05,8.73,2.03
305052,11.76,-8.99,34.76,0.97,8.73,1.98
305092,9.54,-7.36,38.56,0.92,8.73,1.87
305128,5.90,-7.09,39.19,0.95,8.73,1.83
305162,2.94,-7.15,41.17,1.05,8.73,1.79
305197,-0.11,-6.44,40.39,1.01,8.73,1.90
305232,-3.74,-7.41,37.92,1.03,8.73,1.91
305267,-4.13,-4.90,34.04,1.03,8.73,1.89
305302,-5.62,-4.08,30.08,1.00,8.73,1.84
305338,-4.84,-2.49,26.85,0.96,8.73,1.81
305372,-3.49,-3.24,23.82,0.99,8.73,1.74
305407,0.09,-1.39,22.52,1.03,8.73,1.62
305442,1.39,-0.12,22.43,1.13,8.73,1.54
305477,6.97,-1.22,22.93,1.28,8.73,1.57
305512,9.89,-3.10,23.25,1.40,8.73,1.70
305547,12.56,-3.48,24.83,1.36,8.73,1.84
305582,13.16,-5.62,29.00,1.30,8.73,1.97
305617,12.96,-7.86,32.87,1.18,8.73,2.03
305652,12.03,-8.57,36.62,1.14,8.73,2.08
305687,8.37,-7.73,39.70,1.12,8.73,2.07
305722,5.85,-7.72,40.55,1.09,8.73,2.02
305757,1.07,-8.33,42.08,1.06,8.73,2.01
305792,-1.13,-7.34,38.95,1.13,8.73,1.98
305828,-2.97,-6.52,35.76,1.16,8.73,1.99
305862,-4.92,-7.42,31.74,1.20,8.73,2.07
305897,-5.44,-6.78,28.16,1.18,8.73,2.10
305932,-6.23,-5.86,25.23,1.12,8.73,2.15
305967,-3.45,-6.19,22.67,1.03,8.73,2.22
306002,1.07,-5.19,21.10,0.96,8.73,2.21
306037,3.75,-5.64,21.54,0.88,8.73,2.16
306072,7.20,-5.75,21.01,0.87,8.73,2.08
306107,9.95,-4.17,23.71,0.81,8.73,2.05
306142,11.83,-5.34,26.88,0.94,8.73,2.04
306177,13.09,-6.75,31.05,0.99,8.73,2.05
306212,12.31,-6.67,35.14,1.02,8.73,2.12
306247,10.77,-7.81,38.43,0.96,8.73,2.18
306282,7.58,-8.18,40.63,0.91,8.73,2.22
306317,3.63,-8.09,40.46,0.83,8.73,2.19
306352,0.46,-6.92,39.07,0.78,8.73,2.13
306387,-3.39,-7.18,37.70,0.72,8.73,2.03
306422,-5.48,-5.52,35.87,0.78,8.73,1.99
306457,-7.65,-3.95,34.18,0.84,8.73,1.91
306492,-6.11,-4.12,29.36,0.87,8.73,1.95
306527,-4.52,-5.17,24.48,0.96,8.73,1.94
306562,-0.96,-2.16,22.62,0.99,8.73,1.91
306597,2.90,-3.64,20.86,0.99,8.73,1.86
306632,6.00,-3.25,20.83,1.04,8.73,1.83
306667,9.72,-3.06,22.44,1.14,8.73,1.83
306702,13.09,-5.18,26.24,1.25,8.73,1.83
306737,13.20,-5.56,28.93,1.20,8.73,1.86
306772,12.56,-7.77,30.59,1.15,8.73,1.94
306808,12.13,-7.69,34.30,1.09,8.73,1.92
306843,9.95,-7.01,37.24,1.00,8.73,1.85
306877,5.80,-7.54,38.34,1.00,8.73,1.85
306912,2.35,-7.62,40.47,1.02,8.73,1.88
306947,-0.30,-7.15,38.66,1.04,8.73,1.96
306982,-4.41,-6.75,36.68,0.96,8.73,1.99
307017,-5.38,-5.71,33.80,0.92,8.73,1.99
307052,-5.29,-5.04,29.55,0.85,8.73,1.93
307087,-5.40,-4.30,27.25,0.80,8.73,1.92
307127,-3.46,-3.18,23.72,0.84,8.73,1.94
307162,-0.46,-4.23,21.35,0.86,8.73,1.93
307197,2.96,-4.46,21.00,0.87,8.73,1.91
307232,6.75,-5.27,21.17,0.87,8.73,1.90
307267,9.88,-3.95,22.89,0.82,8.73,1.89
307302,12.55,-5.30,25.69,0.79,8.73,1.88
307337,12.67,-5.18,28.98,0.80,8.73,1.78
307372,13.19,-4.41,31.85,0.83,8.73,1.77
307407,10.43,-6.43,34.13,0.97,8.73,1.79
307442,8.17,-7.48,37.14,1.03,8.73,1.79
307477,5.84,-5.06,40.07,1.07,8.73,1.77
307512,1.25,-8.69,39.07,1.16,8.73,1.82
307547,-2.07,-3.15,39.49,1.23,8.73,1.74
307582,-3.28,-4.90,35.40,1.40,8.73,1.74
307617,-4.51,-6.45,31.61,1.49,8.73,1.86
307652,-5.29,-5.91,28.95,1.45,8.73,1.98
307687,-4.51,-8.09,25.57,1.30,8.73,2.09
307722,-4.38,-4.10,23.92,1.19,8.73,2.05
307757,-0.60,-1.83,22.73,1.09,8.73,1.90
307792,3.68,-1.73,21.27,1.13,8.73,1.86
307827,7.43,-3.45,21.41,1.22,8.73,1.90
307862,11.75,-4.80,23.18,1.29,8.73,1.95
307897,13.12,-5.79,26.70,1.28,8.73,2.00
307932,14.37,-7.28,29.25,1.12,8.73,2.06
307967,12.23,-7.88,32.14,1.03,8.73,2.05
308002,11.20,-6.46,35.30,0.84,8.73,2.01
308037,8.99,-8.29,37.72,0.85,8.73,1.99
308072,4.60,-7.33,38.90,0.90,8.73,1.90
308107,0.91,-7.48,40.99,0.88,8.73,1.95
308143,-4.95,-10.33,44.23,0.90,8.73,1.92
308177,4.97,-7.25,27.04,0.92,8.73,1.89
308212,-4.14,-4.53,28.42,1.00,8.73,1.84
308247,-5.25,-4.33,28.30,0.97,8.73,1.80
308282,-7.14,-3.49,27.24,0.93,8.73,1.68
308317,-10.14,0.82,24.54,0.92,8.73,1.60
308352,-6.20,-0.79,21.97,1.04,8.73,1.52
308387,0.41,-1.35,20.81,1.19,8.73,1.53
308422,6.62,-1.95,18.65,1.32,8.73,1.55
308457,17.14,-2.34,24.91,1.39,8.73,1.64
308492,14.39,-9.29,26.87,1.47,8.73,1.78
308527,14.84,-4.67,33.76,1.37,8.73,1.95
308562,12.01,-9.22,34.92,1.37,8.73,2.15
308597,10.35,-8.91,37.21,1.23,8.73,2.18
308632,7.46,-7.11,39.35,1.13,8.73,2.19
308667,4.33,-8.40,39.80,1.02,8.73,2.05
308702,-0.27,-8.94,41.27,1.02,8.73,2.09
308737,-4.23,-9.44,39.77,0.94,8.73,2.16
308772,-6.78,-7.00,36.98,0.78,8.73,2.16
308807,-6.63,-5.37,32.64,0.74,8.73,2.07
308843,-6.22,-4.97,28.44,0.70,8.73,2.00
308877,-5.89,-3.34,24.89,0.80,8.73,1.98
308912,-1.91,-3.50,22.26,0.80,8.73,1.98
308947,0.91,-5.18,20.47,0.84,8.73,1.99
308982,6.23,-4.94,22.55,0.81,8.73,1.98
309017,10.97,-4.38,22.41,0.75,8.73,1.93
309052,12.16,-4.92,24.49,0.78,8.73,1.86
309087,14.21,-5.77,27.67,0.83,8.73,1.80
309122,12.91,-5.70,31.40,0.82,8.73,1.72
309162,11.09,-7.15,34.17,0.91,8.73,1.66
309197,10.09,-5.52,37.50,0.97,8.73,1.62
309232,6.16,-5.90,38.74,1.07,8.73,1.73
309267,2.54,-7.73,39.51,1.15,8.73,1.84
309303,-1.00,-6.02,41.54,1.21,8.73,1.91
309338,-2.66,-7.51,36.14,1.20,8.73,1.97
309372,-4.86,-5.63,32.92,1.25,8.73,2.05
309407,-4.98,-6.09,28.49,1.33,8.73,2.11
309442,-4.81,-5.61,25.90,1.25,8.73,2.24
309477,-5.13,-7.16,22.55,1.18,8.73,2.30
309512,-0.48,-5.51,21.42,1.02,8.73,2.31
309547,1.88,-5.16,19.73,0.87,8.73,2.20
309582,5.99,-3.27,19.89,0.84,8.73,2.16
309617,11.23,-3.51,22.13,0.90,8.73,2.02
309652,11.77,-3.70,25.87,0.95,8.73,1.95
309687,13.33,-5.24,27.70,0.99,8.73,1.91
309722,12.33,-8.32,31.03,0.92,8.73,1.81
309757,11.69,-5.81,35.31,0.81,8.73,1.67
309792,9.29,-7.02,38.08,0.85,8.73,1.51
309827,6.00,-5.41,38.54,0.98,8.73,1.36
309862,2.14,-4.25,39.45,1.10,8.73,1.30
309897,-1.57,-5.54,39.36,1.34,8.73,1.28
309932,-4.18,-4.30,37.04,1.47,8.73,1.40
309967,-5.71,-5.06,32.43,1.46,8.73,1.55
310002,-6.28,-4.99,28.71,1.34,8.73,1.63
310037,-4.14,-1.10,26.16,1.24,8.73,1.61
310072,-2.70,-2.64,22.66,1.22,8.73,1.52
310107,-2.25,-0.09,20.94,1.32,8.73,1.50
310142,-0.11,-2.15,20.04,1.39,8.73,1.71
310177,7.07,-3.41,21.60,1.39,8.73,1.93
310212,9.39,-6.31,20.96,1.34,8.73,2.09
310247,13.16,-3.48,25.77,1.31,8.73,2.17
310282,15.23,-5.91,27.59,1.30,8.73,2.34
310317,14.00,-9.77,30.66,1.26,8.73,2.53
310352,11.32,-9.78,33.91,1.12,8.73,2.67
310387,8.95,-9.52,35.80,0.89,8.73,2.79
310422,4.19,-10.53,35.05,0.65,8.73,2.92
310457,1.41,-10.47,38.58,0.19,8.73,2.92
310492,-1.14,-10.35,39.10,-0.27,8.73,2.82
310527,-3.91,-3.72,37.88,-0.42,8.73,2.43
310562,-10.21,-2.39,38.05,-0.29,8.73,1.96
310597,-6.61,-1.66,33.08,-0.05,8.73,1.68
310632,-5.81,1.34,28.66,0.28,8.73,1.43
310666,-5.49,-0.27,24.74,0.63,8.73,1.34
310701,0.84,2.31,24.34,0.88,8.73,1.15
310736,2.98,1.17,23.32,1.17,8.73,1.09
310771,8.38,-0.86,24.32,1.45,8.73,1.31
310806,10.75,-2.74,23.49,1.69,8.73,1.52
310841,12.51,-8.06,28.43,1.71,8.73,1.83
310876,13.84,-7.97,32.92,1.65,8.73,2.10
310911,13.04,-10.58,36.17,1.56,8.73,2.30
310946,9.58,-9.89,37.90,1.29,8.73,2.39
310981,4.81,-10.66,36.82,1.09,8.73,2.55
311016,2.58,-11.63,40.98,0.86,8.73,2.47
311051,0.61,-9.54,39.58,0.71,8.73,2.40
311086,-4.26,-8.66,38.65,0.40,8.73,2.33
311121,-5.70,-7.83,35.02,0.28,8.73,2.15
311156,-5.78,-5.78,30.07,0.33,8.73,1.94
311196,-5.08,-0.74,27.37,0.31,8.73,1.60
311231,-2.69,-2.28,24.08,0.55,8.73,1.42
311266,-0.75,1.16,21.78,0.81,8.73,1.23
311301,-0.99,1.59,20.63,1.06,8.73,1.22
311336,6.72,-0.52,22.69,1.35,8.73,1.30
311371,10.81,-1.51,23.43,1.70,8.73,1.46
311406,15.27,-5.00,27.38,1.89,8.73,1.70
311441,13.92,-4.79,31.38,2.13,8.73,2.03
311476,12.55,-9.22,33.08,2.13,8.73,2.47
311512,11.32,-13.30,34.79,1.82,8.73,2.75
311546,8.09,-13.58,38.05,1.51,8.73,2.92
311581,3.62,-12.65,40.69,1.10,8.73,2.82
311616,-0.02,-11.25,42.05,0.90,8.73,2.56
311652,-1.87,-10.26,37.94,0.82,8.73,2.41
311686,-6.29,-7.91,35.27,0.65,8.73,2.21
311721,-5.56,-6.61,31.69,0.41,8.73,1.99
311756,-5.38,-4.24,27.05,0.09,8.73,1.63
311791,-5.03,0.39,23.59,0.11,8.73,1.06
311826,-1.00,7.63,23.34,0.34,8.73,0.51
311861,2.47,6.54,21.89,0.92,8.73,0.36
311896,6.07,5.56,20.98,1.46,8.73,0.52
311931,10.64,0.56,22.00,1.82,8.73,0.89
311966,15.02,-3.07,28.94,1.99,8.73,1.28
312001,16.01,-6.58,31.05,1.97,8.73,1.61
312036,13.70,-8.17,32.01,1.86,8.73,1.86
312071,10.11,-11.37,35.16,1.74,8.73,1.97
312106,8.80,-9.05,37.91,1.45,8.73,1.80
312141,4.61,-9.86,37.71,1.47,8.73,1.65
312176,1.34,-10.51,36.96,1.68,8.73,1.65
312211,-2.05,-8.24,33.42,1.61,8.73,1.79
312246,-3.83,-10.01,29.59,1.43,8.73,1.97
312281,-5.02,-8.95,26.54,1.07,8.73,1.99
312316,-7.10,-7.09,24.26,0.67,8.73,1.90
312351,-6.84,-3.28,22.62,0.33,8.73,1.59
312386,-6.79,-0.59,19.83,0.32,8.73,1.28
312421,-0.46,1.96,18.81,0.48,8.73,1.06
312456,2.49,2.72,15.96,0.71,8.73,0.82
312491,6.42,3.55,16.84,1.04,8.73,0.74
312526,9.43,1.61,18.01,1.36,8.73,0.79
312561,11.72,-1.15,19.23,1.56,8.73,1.01
312596,12.01,-4.10,22.82,1.61,8.73,1.24
312631,13.31,-5.70,26.09,1.51,8.73,1.42
312666,12.60,-8.36,29.07,1.43,8.73,1.47
312701,10.57,-5.71,32.07,1.34,8.73,1.41
312736,8.42,-6.47,34.13,1.34,8.73,1.32
312771,4.83,-6.76,33.80,1.49,8.73,1.24
312806,1.26,-6.97,34.52,1.67,8.73,1.29
312841,-2.74,-6.96,32.12,1.79,8.73,1.50
312876,-5.71,-6.42,31.08,1.84,8.73,1.70
312911,-5.97,-8.12,27.30,1.76,8.73,1.94
312946,-6.32,-7.89,24.03,1.57,8.73,2.13
312981,-6.78,-7.67,21.35,1.31,8.73,2.21
313016,-5.78,-5.21,18.82,1.07,8.73,2.23
313051,-4.25,-5.28,16.17,0.92,8.73,2.21
313086,0.23,-4.46,14.93,0.78,8.73,2.15
313121,3.80,-5.14,15.65,0.62,8.73,2.15
313156,5.69,-6.39,15.29,0.48,8.73,2.09
313191,8.31,-6.75,17.06,0.29,8.73,2.03
313231,11.04,-5.73,20.23,0.13,8.73,1.84
313266,11.80,-5.15,23.50,0.14,8.73,1.62
313301,12.76,-4.62,27.16,0.20,8.73,1.41
313336,11.61,-3.38,30.82,0.33,8.73,1.25
313371,9.00,-3.44,33.87,0.52,8.73,1.08
313406,5.49,-3.36,34.74,0.69,8.73,1.03
313441,3.17,-3.50,35.86,0.92,8.73,1.07
313476,-0.81,-4.32,35.17,1.03,8.73,1.21
313511,-2.63,-4.47,32.40,1.07,8.73,1.36
313546,-4.96,-3.10,30.00,1.09,8.73,1.43
313581,-6.32,-2.69,26.66,1.02,8.73,1.49
313616,-6.28,-2.14,23.96,0.90,8.73,1.44
313651,-4.59,0.33,22.16,0.90,8.73,1.36
313686,-3.17,0.52,18.89,0.97,8.73,1.31
313721,0.74,1.66,16.59,1.12,8.73,1.30
313756,3.22,0.71,16.23,1.27,8.73,1.38
313791,5.55,-0.33,16.81,1.42,8.73,1.41
313826,9.27,1.02,16.85,1.58,8.73,1.47
313861,10.18,-2.38,19.56,1.65,8.73,1.68
313896,12.20,-5.14,23.36,1.62,8.73,1.88
313931,13.08,-6.64,25.47,1.49,8.73,2.00
313967,12.15,-8.05,28.78,1.29,8.73,2.08
314002,9.97,-7.23,32.02,1.05,8.73,1.93
314037,6.96,-6.86,33.68,0.96,8.73,1.75
314071,3.56,-5.87,35.61,0.98,8.73,1.59
314106,1.19,-5.35,36.31,1.15,8.73,1.48
314141,-1.36,-5.58,32.63,1.31,8.73,1.44
314176,-5.61,-4.70,31.38,1.38,8.73,1.52
314211,-5.49,-5.36,27.89,1.41,8.73,1.66
314246,-7.64,-5.68,25.27,1.30,8.73,1.72
314282,-6.17,-3.57,23.22,1.17,8.73,1.70
314317,-5.89,-3.33,19.95,1.08,8.73,1.66
314351,-1.74,-1.31,17.71,1.09,8.73,1.60
314386,1.88,-0.57,16.79,1.14,8.73,1.49
314421,5.94,-0.32,16.91,1.29,8.73,1.48
314456,8.85,-0.72,17.03,1.46,8.73,1.53
314491,10.50,-2.51,19.84,1.59,8.73,1.67
314526,12.66,-3.89,22.70,1.68,8.73,1.86
314561,13.49,-6.12,25.33,1.66,8.73,2.10
314596,12.83,-7.17,29.37,1.62,8.73,2.34
314631,10.51,-8.36,31.81,1.53,8.73,2.64
314666,8.65,-9.53,34.44,1.30,8.73,2.86
314701,5.02,-10.30,35.28,1.00,8.73,2.81
314736,1.22,-8.24,36.30,0.75,8.73,2.60
314771,-2.08,-7.91,33.94,0.70,8.73,2.34
314806,-4.46,-6.09,32.45,0.75,8.73,2.14
314842,-5.52,-5.93,28.67,0.86,8.73,2.07
314876,-7.55,-5.52,25.24,0.85,8.73,2.03
314911,-4.78,-5.83,21.26,0.74,8.73,1.99
314946,-3.80,-3.81,17.76,0.59,8.73,1.83
314981,0.52,-2.43,16.70,0.52,8.73,1.63
315016,3.22,-2.52,15.08,0.53,8.73,1.50
315051,5.03,-3.06,15.44,0.52,8.73,1.56
315086,6.78,-5.40,14.62,0.46,8.73,1.61
315121,9.18,-5.61,17.68,0.31,8.73,1.64
315156,10.84,-6.26,20.54,0.14,8.73,1.55
315191,11.77,-5.66,23.73,0.05,8.73,1.35
315226,13.07,-3.14,27.04,0.18,8.73,1.17
315266,10.09,-3.31,30.79,0.43,8.73,1.05
315301,8.51,-3.54,33.71,0.68,8.73,1.03
315336,5.46,-4.49,35.25,0.87,8.73,1.05
315371,1.88,-3.84,36.66,1.07,8.73,1.07
315406,-0.90,-4.37,34.81,1.33,8.73,1.09
315441,-4.71,-7.06,33.82,1.45,8.73,1.29
315476,-6.34,-5.29,31.73,1.41,8.73,1.47
315511,-6.40,-5.75,27.52,1.21,8.73,1.58
315547,-6.69,-3.11,23.58,1.06,8.73,1.54
315581,-3.34,-1.18,20.64,0.99,8.73,1.44
315616,-2.73,1.36,17.49,1.06,8.73,1.33
315651,1.94,1.42,17.13,1.18,8.73,1.30
315686,5.46,1.33,17.21,1.34,8.73,1.28
315721,6.91,0.07,16.03,1.50,8.73,1.32
315756,10.47,-0.25,18.52,1.63,8.73,1.46
315791,11.87,-3.28,21.53,1.69,8.73,1.63
315826,12.41,-6.17,22.28,1.53,8.73,1.84
315861,11.88,-7.01,25.48,1.29,8.73,1.93
315896,10.43,-7.60,29.24,1.06,8.73,1.88
315931,8.56,-6.69,32.13,0.93,8.73,1.77
315966,6.22,-8.54,33.05,0.88,8.73,1.59
316001,3.38,-6.14,35.90,0.90,8.73,1.58
316036,-0.31,-6.47,35.21,0.93,8.73,1.67
316071,-2.73,-7.00,32.32,0.81,8.73,1.79
316106,-5.50,-5.61,30.90,0.57,8.73,1.82
316141,-4.36,-3.81,26.41,0.53,8.73,1.75
316176,-5.96,-2.72,23.55,0.56,8.73,1.65
316211,-5.66,-1.57,20.97,0.75,8.73,1.69
316246,-3.48,-3.32,17.95,0.90,8.73,1.79
316281,0.70,-4.31,16.07,0.94,8.73,1.88
316316,3.17,-4.72,14.90,0.88,8.73,1.94
316351,6.61,-3.89,16.39,0.85,8.73,1.93
316386,8.32,-3.96,14.97,0.89,8.73,1.87
316421,9.50,-4.89,18.38,0.92,8.73,1.85
316456,10.95,-5.23,21.36,0.87,8.73,1.83
316491,11.40,-5.62,24.95,0.84,8.73,1.85
316526,12.41,-6.32,27.78,0.85,8.73,1.89
316561,10.60,-7.85,31.25,0.83,8.73,1.92
316596,7.12,-7.56,33.27,0.81,8.73,1.92
316631,4.35,-7.61,34.14,0.74,8.73,1.98
316666,1.40,-7.53,34.65,0.56,8.73,2.04
316701,-1.63,-7.05,35.03,0.37,8.73,2.01
316736,-4.29,-5.88,32.11,0.16,8.73,1.89
316771,-6.31,-3.20,29.90,0.01,8.73,1.70
316806,-5.91,-2.21,26.29,0.01,8.73,1.43
316841,-7.18,0.76,24.18,0.12,8.73,1.17
316876,-5.58,2.31,20.79,0.33,8.73,0.99
316911,-3.11,2.43,18.55,0.63,8.73,0.88
316946,0.22,3.22,18.43,0.93,8.73,0.88
316981,4.37,2.04,19.12,1.24,8.73,0.97
317016,6.47,0.33,18.05,1.42,8.73,1.20
317051,10.37,-3.43,20.36,1.56,8.73,1.48
317086,13.81,-7.60,24.74,1.49,8.73,1.71
317121,12.20,-3.98,27.91,1.46,8.73,1.92
317156,12.65,-7.14,30.81,1.44,8.73,2.18
317191,10.75,-9.68,34.51,1.32,8.73,2.40
317226,7.46,-10.01,35.60,1.14,8.73,2.56
317261,3.31,-10.42,35.55,0.85,8.73,2.70
317301,-1.06,-10.28,37.72,0.54,8.73,2.60
317337,-2.60,-8.06,34.65,0.33,8.73,2.40
317371,-6.35,-6.84,32.54,0.22,8.73,2.15
317406,-6.44,-5.03,30.12,0.27,8.73,1.94
317441,-7.42,-2.32,26.62,0.42,8.73,1.79
317477,-5.21,-3.06,22.57,0.59,8.73,1.71
317511,1.75,-2.18,19.31,0.76,8.73,1.69
317546,3.96,-2.94,16.51,0.89,8.73,1.65
317581,4.80,-2.64,17.43,1.01,8.73,1.56
317616,6.86,-3.22,18.22,1.10,8.73,1.64
317651,9.49,-4.53,20.96,1.28,8.73,1.75
317686,12.69,-3.73,23.90,1.45,8.73,1.82
317721,13.31,-4.84,26.96,1.66,8.73,2.08
317756,12.87,-5.12,29.96,1.88,8.73,2.51
317791,10.25,-11.47,32.00,1.85,8.73,3.07
317827,8.43,-14.02,37.75,1.49,8.73,3.41
317861,4.85,-12.36,39.62,0.90,8.73,3.36
317896,-0.14,-11.08,40.57,0.49,8.73,2.99
317932,-3.13,-9.75,36.53,0.30,8.73,2.62
317966,-5.01,-9.08,32.93,0.28,8.73,2.32
318001,-5.59,-6.53,29.55,0.14,8.73,2.05
318036,-6.36,-3.76,28.08,0.04,8.73,1.77
318071,-7.44,-1.35,25.47,0.18,8.73,1.45
318106,-4.34,3.26,24.13,0.28,8.73,1.05
318141,0.81,1.87,22.28,0.63,8.73,0.94
318176,5.09,0.50,21.66,0.91,8.73,1.06
318211,10.31,-2.21,22.99,1.21,8.73,1.19
318246,13.92,-2.26,25.80,1.45,8.73,1.35
318281,14.44,-4.87,29.40,1.48,8.73,1.55
318316,13.56,-5.73,31.63,1.51,8.73,1.75
318351,12.36,-7.46,33.89,1.56,8.73,2.03
318386,9.54,-9.35,36.46,1.59,8.73,2.37
318421,5.77,-11.57,38.12,1.43,8.73,2.61
318456,2.42,-10.61,40.00,1.11,8.73,2.74
318491,-1.16,-11.16,38.75,0.91,8.73,2.69
318526,-3.65,-9.08,35.74,0.81,8.73,2.52
318561,-5.01,-7.56,31.96,0.71,8.73,2.39
318596,-5.25,-7.55,27.92,0.63,8.73,2.29
318631,-4.61,-6.84,24.63,0.57,8.73,2.22
318666,-4.24,-4.58,21.72,0.59,8.73,2.24
318701,-0.75,-7.87,18.88,0.60,8.73,2.37
318736,2.07,-8.57,18.07,0.45,8.73,2.38
318771,6.65,-8.11,19.37,0.28,8.73,2.27
318806,9.61,-7.24,19.92,0.23,8.73,2.06
318842,10.77,-3.98,23.03,0.29,8.73,1.77
318876,12.33,-5.56,25.85,0.45,8.73,1.64
318911,12.89,-4.34,29.68,0.63,8.73,1.54
318946,11.82,-4.63,32.53,0.74,8.73,1.56
318981,9.28,-4.96,35.91,0.92,8.73,1.62
319016,6.51,-6.18,37.22,1.01,8.73,1.79
319051,3.35,-7.77,38.34,0.99,8.73,1.98
319087,-0.33,-7.68,38.46,0.88,8.73,2.04
319121,-3.10,-7.66,35.89,0.71,8.73,2.06
319156,-4.95,-4.76,33.88,0.59,8.73,2.02
319191,-5.62,-4.12,30.58,0.52,8.73,1.89
319226,-7.31,-3.78,27.17,0.54,8.73,1.75
319261,-6.65,-1.61,24.59,0.66,8.73,1.75
319296,-4.48,-4.72,21.71,0.77,8.73,1.79
319336,1.57,-5.17,20.63,0.81,8.73,1.93
319371,6.80,-4.09,20.31,0.78,8.73,1.99
319406,8.89,-6.05,19.53,0.79,8.73,1.94
319441,10.89,-3.39,23.80,0.87,8.73,1.87
319476,12.65,-3.90,27.60,0.95,8.73,1.84
319511,12.43,-5.50,31.05,1.07,8.73,1.89
319546,11.95,-5.52,35.31,1.10,8.73,2.00
319581,8.90,-7.99,37.35,1.06,8.73,2.05
319616,5.88,-7.81,39.10,1.02,8.73,2.00
319652,3.17,-6.90,41.61,1.00,8.73,1.93
319686,0.22,-5.88,40.18,1.06,8.73,1.93
319721,-3.16,-7.27,36.61,1.28,8.73,1.89
319756,-5.79,-6.12,34.34,1.30,8.73,1.94
319791,-6.47,-6.84,30.65,1.23,8.73,2.02
319827,-5.78,-6.08,28.51,1.12,8.73,2.09
319861,-7.02,-5.30,25.78,1.07,8.73,2.08
319896,-1.59,-4.05,24.11,1.01,8.73,2.05
319931,1.62,-3.84,22.38,0.98,8.73,2.01
319966,5.98,-3.59,22.60,0.98,8.73,2.01
320001,10.79,-5.65,23.97,1.02,8.73,2.00
320036,13.47,-6.17,26.49,1.02,8.73,2.00
320071,14.43,-6.26,30.33,1.00,8.73,1.99
320106,13.10,-6.14,33.36,1.01,8.73,2.06
320141,11.67,-9.41,35.99,1.04,8.73,2.14
320176,8.66,-7.42,39.66,1.06,8.73,2.19
320211,5.32,-7.97,40.25,0.98,8.73,2.11
320246,1.78,-7.05,40.45,0.91,8.73,2.10
320281,-2.04,-7.97,38.98,0.98,8.73,2.02
320316,-5.74,-5.57,38.40,1.00,8.73,1.95
320351,-7.02,-6.50,34.31,1.02,8.73,1.96
320386,-5.00,-4.26,29.77,0.99,8.73,1.91
320421,-5.41,-2.62,26.19,0.89,8.73,1.80
320456,-2.55,-1.25,22.92,0.96,8.73,1.68
320491,2.56,-0.69,22.28,1.09,8.73,1.59
320526,5.23,0.69,23.53,1.23,8.73,1.54
320561,7.88,-2.03,22.09,1.36,8.73,1.67
320596,10.97,-6.39,26.35,1.39,8.73,1.84
320631,13.57,-7.59,29.91,1.27,8.73,1.92
320666,13.30,-6.32,33.09,1.13,8.73,1.93
320701,12.42,-7.88,36.22,1.05,8.73,1.90
320736,9.42,-7.77,38.61,1.04,8.73,1.75
320771,5.91,-6.42,39.86,1.03,8.73,1.60
320806,3.67,-6.82,40.12,1.15,8.73,1.61
320842,-0.32,-6.24,39.81,1.22,8.73,1.70
320876,-3.59,-9.29,37.78,1.16,8.73,1.84
320911,-5.82,-5.94,35.77,0.95,8.73,1.87
320946,-6.07,-4.47,31.98,0.81,8.73,1.83
320981,-5.68,-3.82,28.38,0.73,8.73,1.69
321016,-3.85,-0.83,25.66,0.78,8.73,1.53
321051,1.60,0.90,23.74,0.88,8.73,1.35
321086,4.88,1.46,21.96,1.05,8.73,1.20
321121,8.09,0.84,22.49,1.24,8.73,1.26
321156,10.37,-2.56,23.59,1.37,8.73,1.44
321191,13.51,-5.57,25.87,1.39,8.73,1.61
321226,12.81,-5.44,30.11,1.29,8.73,1.70
321261,13.42,-4.56,33.80,1.25,8.73,1.76
321296,11.59,-7.94,36.59,1.23,8.73,1.77
321332,8.46,-6.58,40.08,1.28,8.73,1.74
321371,4.75,-7.24,41.67,1.37,8.73,1.66
321406,0.52,-6.24,42.12,1.63,8.73,1.55
321441,-1.66,-5.94,38.96,1.85,8.73,1.66
321476,-6.71,-8.26,36.38,1.97,8.73,1.90
321511,-5.92,-10.40,32.47,1.85,8.73,2.22
321546,-5.85,-9.63,28.13,1.56,8.73,2.34
321581,-5.42,-5.68,26.24,1.28,8.73,2.42
321616,-2.79,-8.46,23.24,1.13,8.73,2.42
321651,2.48,-7.31,22.30,0.97,8.73,2.48
321686,5.62,-7.75,21.51,0.77,8.73,2.53
321721,9.00,-7.76,23.21,0.59,8.73,2.46
321756,11.87,-7.42,26.05,0.40,8.73,2.31
321791,13.75,-4.80,29.48,0.44,8.73,2.13
321827,13.30,-6.40,33.27,0.56,8.73,2.02
321861,12.64,-6.47,36.72,0.70,8.73,1.97
321896,9.79,-5.45,39.90,0.75,8.73,1.94
321931,5.93,-6.89,41.64,0.79,8.73,2.01
321966,2.74,-6.56,40.78,0.72,8.73,2.09
322001,-0.54,-7.11,39.58,0.67,8.73,2.01
322036,-3.85,-3.52,38.07,0.76,8.73,1.89
322071,-4.30,-3.19,33.63,0.78,8.73,1.82
322106,-5.04,-2.19,29.93,0.89,8.73,1.80
322142,-5.07,-3.97,26.85,0.94,8.73,1.78
322176,-6.02,0.51,25.56,1.06,8.73,1.87
322211,2.63,-2.95,23.25,1.07,8.73,1.82
322246,5.07,-2.96,22.02,1.11,8.73,1.87
322281,7.68,-4.47,21.98,1.15,8.73,1.97
322316,10.75,-5.12,23.01,1.17,8.73,2.04
322351,12.21,-5.63,26.35,1.18,8.73,2.09
322386,13.18,-5.64,30.61,1.20,8.73,2.13
322421,12.57,-7.88,34.08,1.23,8.73,2.24
322456,10.85,-7.72,37.30,1.16,8.73,2.30
322491,8.54,-7.98,39.60,0.98,8.73,2.27
322526,4.32,-8.31,42.67,0.90,8.73,2.23
322562,1.00,-8.48,39.58,0.92,8.73,2.11
322596,-2.75,-5.93,39.22,1.07,8.73,1.99
322631,-4.54,-5.31,36.67,1.08,8.73,2.01
322666,-4.47,-6.67,31.52,1.12,8.73,2.09
322701,-5.45,-6.97,27.90,1.20,8.73,2.19
322736,-3.76,-6.48,25.46,1.15,8.73,2.24
322771,-1.01,-5.97,22.97,1.01,8.73,2.30
322806,1.45,-5.83,21.56,0.94,8.73,2.27
322841,5.10,-5.02,21.96,0.90,8.73,2.16
322876,9.56,-4.35,23.14,0.93,8.73,2.11
322911,12.42,-3.84,26.12,0.98,8.73,2.05
322946,13.38,-5.34,28.90,1.02,8.73,2.06
322981,13.62,-7.00,32.39,1.05,8.73,2.12
323016,11.97,-7.30,35.16,1.11,8.73,2.19
323051,9.75,-7.23,38.09,1.05,8.73,2.29
323087,5.62,-9.18,38.10,0.98,8.73,2.37
323121,2.48,-8.85,39.89,0.78,8.73,2.41
323156,-0.75,-7.01,39.51,0.72,8.73,2.27
323191,-3.22,-5.63,37.44,0.67,8.73,2.14
323226,-4.97,-4.01,34.34,0.87,8.73,2.05
323261,-7.19,-4.43,31.51,0.98,8.73,2.00
323296,-5.94,-3.94,29.06,1.02,8.73,2.10
323331,-3.81,-5.86,25.43,0.97,8.73,2.06
323366,0.66,-3.21,22.89,0.96,8.73,1.99
323406,6.82,-2.93,22.22,0.93,8.73,1.84
323441,8.57,-3.26,21.50,0.98,8.73,1.81
323476,10.86,-6.02,23.72,1.07,8.73,1.84
323511,12.16,-5.86,26.85,0.92,8.73,1.86
323546,12.94,-5.43,29.92,0.83,8.73,1.88
323581,12.40,-8.87,33.18,0.84,8.73,1.79
323616,10.52,-6.04,38.02,0.86,8.73,1.62
323651,9.18,-6.63,41.08,0.91,8.73,1.49
323686,4.53,-6.39,41.05,1.12,8.73,1.48
323721,0.11,-6.82,41.46,1.32,8.73,1.50
323756,-2.20,-6.20,39.20,1.37,8.73,1.66
323792,-5.27,-5.80,36.49,1.18,8.73,1.79
323826,-5.57,-6.25,32.78,0.98,8.73,1.83
323861,-5.79,-4.38,28.82,0.82,8.73,1.71
323896,-4.32,1.12,26.46,0.85,8.73,1.57
323931,-1.19,1.70,24.25,0.93,8.73,1.39
323966,2.68,0.05,22.70,1.10,8.73,1.34
324001,7.11,-1.11,22.80,1.19,8.73,1.49
324036,9.52,-4.36,22.86,1.27,8.73,1.64
324071,11.91,-4.26,25.26,1.21,8.73,1.75
324106,12.40,-6.14,28.55,1.10,8.73,1.81
324141,13.18,-7.91,31.79,1.01,8.73,1.82
324176,11.11,-7.32,35.81,1.03,8.73,1.78
324211,9.75,-6.49,38.91,1.03,8.73,1.76
324281,2.73,-7.03,41.07,1.09,8.73,1.79
324317,-0.80,-7.70,40.05,1.16,8.73,1.88
324351,-3.40,-5.30,37.92,1.12,8.73,1.93
324387,-5.48,-5.88,33.84,1.11,8.73,1.98
324421,-5.96,-5.44,30.66,1.07,8.73,2.02
324456,-4.63,-4.51,27.05,1.09,8.73,2.04
324491,-3.70,-3.38,24.11,1.06,8.73,2.11
324526,-0.09,-5.37,21.88,1.05,8.73,2.12
324561,2.67,-5.28,21.09,0.97,8.73,2.18
324596,6.48,-7.10,20.92,0.92,8.73,2.15
324631,10.75,-5.19,23.99,0.82,8.73,2.13
324666,12.00,-5.46,26.84,0.76,8.73,2.04
324701,12.56,-6.56,30.73,0.79,8.73,2.01
324736,12.14,-7.08,34.58,0.82,8.73,1.94
324771,11.09,-5.83,38.44,0.82,8.73,1.92
324806,8.83,-8.39,40.66,0.84,8.73,1.85
324842,4.37,-7.81,42.20,0.86,8.73,1.83
324876,0.55,-7.02,41.53,0.88,8.73,1.80
324911,-2.47,-5.45,38.56,0.92,8.73,1.77
324946,-5.03,-4.23,35.61,0.85,8.73,1.73
324981,-5.15,-3.86,31.73,0.85,8.73,1.73
325016,-6.02,-4.38,28.61,0.85,8.73,1.62
325051,-5.22,0.33,26.94,0.83,8.73,1.57
325086,-2.10,-1.67,24.33,0.99,8.73,1.51
325121,3.06,-0.49,22.61,1.16,8.73,1.47
325156,7.56,-1.52,22.42,1.30,8.73,1.58
325191,9.42,-3.17,23.57,1.47,8.73,1.72
325226,11.53,-3.32,25.08,1.45,8.73,1.90
325261,12.24,-6.55,28.14,1.48,8.73,2.09
325296,12.16,-7.93,31.63,1.48,8.73,2.26
325332,12.73,-9.25,35.54,1.44,8.73,2.44
325366,9.64,-9.53,38.68,1.25,8.73,2.52
325401,5.67,-10.12,39.51,1.05,8.73,2.45
325441,2.40,-9.10,41.26,0.97,8.73,2.28
325476,-1.20,-7.41,39.54,0.99,8.73,2.13
325511,-3.44,-7.24,36.63,1.07,8.73,2.07
325546,-5.02,-7.07,33.31,1.11,8.73,2.07
325581,-6.31,-6.45,29.91,1.09,8.73,2.09
325616,-6.08,-7.85,26.59,0.97,8.73,2.11
325651,-5.01,-4.86,24.70,0.91,8.73,2.01
325686,-0.20,-2.83,23.29,0.88,8.73,1.86
325721,5.99,-2.28,23.40,0.97,8.73,1.76
325756,9.33,-3.08,23.66,1.03,8.73,1.77
325791,11.60,-5.08,25.23,1.09,8.73,1.83
325826,13.18,-4.26,28.58,1.17,8.73,1.91
325861,13.64,-5.49,30.94,1.28,8.73,2.00
325896,12.76,-6.83,34.90,1.46,8.73,2.22
325931,9.78,-7.08,37.51,1.49,8.73,2.56
325966,6.69,-10.20,39.36,1.33,8.73,2.83
326001,3.99,-11.10,39.74,1.07,8.73,2.93
326036,-0.15,-8.76,40.72,0.89,8.73,2.73
326072,-3.00,-8.14,38.21,0.87,8.73,2.52
326106,-5.39,-7.39,35.09,1.08,8.73,2.43
326141,-6.73,-7.02,31.44,1.23,8.73,2.46
326176,-6.16,-7.78,26.50,1.26,8.73,2.66
326210,-2.86,-11.24,22.54,1.15,8.73,2.78
326245,-1.77,-8.81,20.59,0.89,8.73,2.88
326280,1.71,-10.80,19.89,0.61,8.73,2.82
326315,4.75,-10.19,19.82,0.32,8.73,2.75
326350,7.71,-8.87,21.49,0.21,8.73,2.50
326385,10.42,-6.81,25.39,0.08,8.73,2.24
326420,13.01,-5.45,29.81,0.14,8.73,1.98
326455,13.49,-4.29,33.99,0.35,8.73,1.80
326490,12.28,-5.43,37.29,0.68,8.73,1.80
326525,10.72,-4.59,39.91,0.82,8.73,1.82
326560,6.17,-5.70,40.54,0.85,8.73,1.80
326595,2.82,-6.06,40.82,0.88,8.73,1.95
326630,-0.78,-6.01,40.15,0.96,8.73,1.97
326665,-3.56,-3.98,37.91,0.97,8.73,1.99
326701,-3.92,-4.39,33.18,1.13,8.73,2.02
326735,-5.79,-3.81,30.49,1.32,8.73,2.14
326770,-5.29,-7.71,26.69,1.42,8.73,2.39
326805,-2.60,-8.93,23.08,1.35,8.73,2.65
326840,0.45,-8.48,21.07,1.11,8.73,2.76
326876,2.50,-7.32,20.99,0.86,8.73,2.66
326910,6.10,-6.85,22.38,0.74,8.73,2.48
326945,9.76,-6.43,22.72,0.69,8.73,2.35
326980,12.16,-4.39,28.02,0.67,8.73,2.21
327015,13.63,-4.90,31.39,0.74,8.73,2.11
327050,12.39,-7.15,34.89,0.76,8.73,2.04
327085,11.46,-7.86,37.39,0.79,8.73,2.03
327121,7.62,-5.44,39.50,0.79,8.73,2.06
327156,3.81,-9.43,40.15,0.73,8.73,2.02
327190,0.95,-6.27,41.53,0.64,8.73,1.92
327225,-2.69,-4.86,38.88,0.68,8.73,1.85
327260,-5.04,-3.82,36.60,0.64,8.73,1.78
327295,-5.76,-2.07,33.44,0.86,8.73,1.76
327331,-5.24,-3.89,28.23,0.97,8.73,1.73
327365,-3.52,-0.89,25.51,1.07,8.73,1.80
327401,-0.47,-3.05,22.54,1.10,8.73,1.76
327435,2.39,-1.41,20.20,1.15,8.73,1.68
327475,6.37,0.25,21.52,1.26,8.73,1.63
327510,7.86,-3.10,21.47,1.39,8.73,1.69
327545,10.42,-3.35,23.87,1.39,8.73,1.83
327580,12.52,-6.81,26.98,1.23,8.73,1.92
327615,13.02,-8.15,31.62,0.99,8.73,1.91
327650,11.78,-7.73,36.01,0.87,8.73,1.75
327685,9.35,-5.80,38.63,0.86,8.73,1.60
327720,5.93,-6.50,39.50,0.98,8.73,1.54
327755,2.33,-7.03,39.47,1.09,8.73,1.61
327790,-0.25,-5.07,38.94,1.13,8.73,1.69
327825,-5.15,-6.88,38.54,0.97,8.73,1.82
327860,-6.31,-5.16,35.30,0.97,8.73,1.86
327895,-5.71,-4.91,30.65,0.93,8.73,1.84
327930,-3.72,-1.95,27.30,0.96,8.73,1.81
327965,-3.23,-2.51,23.38,0.93,8.73,1.74
328000,-0.44,-1.60,22.44,1.01,8.73,1.66
328035,2.65,-0.80,21.92,1.09,8.73,1.59
328070,6.06,-0.63,22.01,1.21,8.73,1.63
328105,8.74,-4.06,23.07,1.29,8.73,1.82
328140,13.73,-4.15,28.16,1.26,8.73,1.95
328175,14.00,-7.93,30.68,1.16,8.73,2.04
328210,13.19,-7.49,33.85,1.12,8.73,2.02
328245,11.60,-7.15,36.45,1.02,8.73,2.05
328280,8.42,-7.76,38.75,1.05,8.73,2.05
328315,5.06,-8.26,40.47,1.05,8.73,1.99
328350,0.92,-6.79,40.75,1.03,8.73,2.00
328386,-2.31,-7.22,38.60,1.00,8.73,2.00
328420,-5.70,-6.50,37.12,0.99,8.73,1.98
328455,-6.18,-5.15,33.44,0.95,8.73,1.98
328490,-5.06,-4.21,29.43,0.90,8.73,1.96
328525,-3.10,-5.40,25.66,0.97,8.73,1.99
328560,-1.70,-2.66,23.23,1.02,8.73,2.10
328595,0.80,-6.03,21.62,0.95,8.73,2.14
328630,4.75,-5.56,22.15,0.87,8.73,2.13
328665,7.88,-4.65,22.18,0.85,8.73,2.09
328700,11.56,-5.70,25.49,0.92,8.73,2.04
328735,13.43,-5.73,28.23,0.98,8.73,1.99
328770,14.10,-4.57,31.98,0.97,8.73,2.00
328805,12.28,-7.59,34.89,0.99,8.73,2.09
328840,9.39,-6.02,37.64,1.02,8.73,2.17
328875,6.09,-8.67,39.52,0.94,8.73,2.22
328911,3.22,-7.81,40.34,0.84,8.73,2.28
328945,-0.46,-8.76,40.27,0.74,8.73,2.26
328980,-3.73,-6.40,39.15,0.72,8.73,2.17
329015,-4.99,-4.31,36.49,0.72,8.73,2.07
329050,-4.48,-5.12,31.34,0.74,8.73,2.03
329085,-4.25,-3.64,27.59,0.82,8.73,1.96
329120,-3.43,-0.78,23.89,0.88,8.73,1.95
329155,-0.07,-4.77,22.36,0.92,8.73,1.94
329190,1.78,-3.42,21.84,0.87,8.73,1.98
329225,5.70,-4.33,21.73,0.90,8.73,1.96
329260,9.70,-4.92,23.57,0.94,8.73,1.91
329295,12.95,-4.93,27.49,0.97,8.73,1.84
329330,13.75,-5.72,29.76,0.94,8.73,1.84
329365,12.87,-7.19,32.41,0.90,8.73,1.77
329400,11.46,-5.82,36.04,0.89,8.73,1.70
329435,8.90,-7.03,38.92,0.93,8.73,1.65
329470,5.68,-6.79,40.19,1.02,8.73,1.71
329510,1.15,-6.32,40.24,1.05,8.73,1.77
329545,-2.03,-8.62,39.19,1.11,8.73,1.88
329580,-3.83,-4.92,36.06,1.11,8.73,1.92
329615,-5.62,-5.69,32.57,1.14,8.73,1.98
329649,-6.49,-7.01,29.27,1.13,8.73,2.03
329683,-5.07,-3.26,26.19,1.09,8.73,2.06
329719,-3.00,-5.23,22.60,1.02,8.73,2.06
329753,1.67,-3.58,22.04,1.00,8.73,2.04
329788,5.77,-5.14,22.14,0.99,8.73,2.01
329823,8.50,-3.03,21.92,0.96,8.73,2.01
329858,10.65,-5.88,23.67,0.94,8.73,2.00
329893,12.06,-5.99,26.77,0.95,8.73,1.99
329928,13.32,-5.29,30.43,0.92,8.73,1.94
329963,13.14,-6.04,34.34,0.95,8.73,2.01
329998,10.53,-8.69,36.60,0.93,8.73,2.03
330033,8.23,-6.40,40.09,0.95,8.73,2.09
330068,3.82,-8.43,40.69,0.89,8.73,2.07
330103,0.11,-5.09,42.16,0.75,8.73,2.05
330138,-2.72,-6.99,38.46,0.68,8.73,2.02
330173,-6.10,-4.34,37.40,0.58,8.73,1.96
330208,-5.43,-3.74,32.66,0.54,8.73,1.85
330243,-5.24,-1.65,28.89,0.52,8.73,1.70
330278,-4.17,-1.90,25.11,0.70,8.73,1.65
330313,-1.93,-2.09,22.40,0.82,8.73,1.71
330348,1.79,-5.12,21.60,0.83,8.73,1.90
330383,5.29,-6.85,21.30,0.71,8.73,2.09
330419,9.03,-7.64,21.99,0.58,8.73,2.14
330453,11.98,-6.81,26.15,0.46,8.73,2.01
330488,13.11,-5.17,30.13,0.46,8.73,1.83
330523,13.33,-4.35,33.16,0.65,8.73,1.76
330558,11.14,-7.10,36.29,0.84,8.73,1.78
330593,9.88,-5.65,40.48,0.94,8.73,1.82
330628,5.94,-7.69,41.12,0.98,8.73,1.92
330663,1.81,-6.92,42.21,1.02,8.73,1.94
330698,-1.10,-5.77,40.48,1.01,8.73,1.93
330733,-3.28,-5.77,37.01,1.11,8.73,1.94
330768,-4.27,-5.73,32.78,1.06,8.73,1.93
330803,-5.65,-3.85,29.99,1.05,8.73,1.97
330838,-5.90,-5.90,26.46,0.96,8.73,1.96
330873,-3.65,-2.18,24.06,0.97,8.73,1.96
330908,0.90,-3.48,22.12,0.95,8.73,1.96
330943,5.46,-3.85,21.66,0.95,8.73,1.98
330978,8.22,-4.73,22.57,0.88,8.73,1.99
331014,8.15,-4.74,23.78,0.88,8.73,2.05
331048,12.16,-4.20,28.64,0.95,8.73,1.96
331083,14.63,-4.92,31.71,0.93,8.73,2.00
331118,12.55,-5.40,34.95,0.93,8.73,2.04
331153,10.67,-7.14,38.34,0.98,8.73,2.09
331189,7.96,-7.56,40.42,0.97,8.73,2.07
331223,4.07,-7.67,41.01,0.91,8.73,1.94
331258,0.51,-4.68,41.10,0.98,8.73,1.84
331293,-2.54,-8.58,36.69,1.13,8.73,1.81
331329,-5.53,-5.14,35.85,1.10,8.73,1.90
331363,-5.16,-5.51,31.67,1.04,8.73,1.91
331398,-6.39,-3.46,28.65,1.00,8.73,1.91
331433,-5.83,-4.52,25.08,1.07,8.73,1.94
331469,-1.19,-3.59,23.15,1.06,8.73,1.94
331503,2.46,-5.24,21.25,1.02,8.73,2.00
331543,5.61,-5.75,20.99,1.01,8.73,2.04
331578,8.84,-4.16,22.83,0.97,8.73,2.05
331613,11.08,-5.38,26.15,0.94,8.73,2.05
331648,13.10,-5.10,29.66,0.99,8.73,2.05
331684,13.91,-6.21,34.26,1.00,8.73,2.09
331718,12.48,-8.29,37.44,1.00,8.73,2.15
331753,8.72,-7.36,39.55,0.98,8.73,2.20
331788,5.43,-7.70,40.21,0.89,8.73,2.23
331824,1.56,-9.16,40.54,0.76,8.73,2.25
331858,-1.88,-6.05,38.67,0.77,8.73,2.15
331893,-4.08,-5.35,35.79,0.71,8.73,2.06
331928,-6.26,-4.48,33.38,0.80,8.73,2.01
331963,-6.28,-5.04,29.80,0.86,8.73,1.98
331998,-3.27,-2.39,26.66,0.85,8.73,1.94
332034,-2.39,-3.70,23.11,0.87,8.73,1.97
332068,0.90,-3.66,21.83,0.91,8.73,1.97
332103,4.31,-3.28,22.11,0.95,8.73,1.94
332138,7.22,-1.56,22.33,1.06,8.73,1.82
332173,10.19,-3.45,22.76,1.14,8.73,1.82
332208,12.56,-5.46,27.90,1.18,8.73,1.87
332244,14.08,-6.97,31.34,1.13,8.73,1.89
332278,13.01,-6.83,34.87,1.07,8.73,1.88
332313,10.43,-7.78,37.08,1.01,8.73,1.79
332349,7.38,-6.18,39.54,1.07,8.73,1.65
332383,4.14,-6.75,39.76,1.17,8.73,1.55
332418,0.12,-5.38,41.19,1.31,8.73,1.60
332453,-3.01,-7.79,37.84,1.47,8.73,1.70
332488,-4.99,-5.53,35.44,1.50,8.73,1.85
332523,-6.10,-6.04,31.61,1.40,8.73,1.99
332558,-6.54,-6.37,28.74,1.24,8.73,2.04
332593,-4.18,-5.35,25.11,1.15,8.73,2.03
332628,-0.92,-3.04,22.64,1.11,8.73,1.96
332663,1.98,-2.92,21.30,1.10,8.73,1.85
332698,5.12,-1.70,21.88,1.14,8.73,1.85
332733,9.32,-3.96,23.14,1.23,8.73,1.90
332768,12.24,-5.23,25.19,1.15,8.73,1.95
332803,13.76,-5.90,28.26,1.10,8.73,1.96
332838,13.55,-7.03,31.47,1.02,8.73,1.96
332873,11.67,-6.91,34.23,0.99,8.73,1.90
332908,9.38,-6.85,36.42,0.91,8.73,1.81
332943,6.00,-7.10,37.37,0.96,8.73,1.79
332978,3.10,-5.49,39.04,0.99,8.73,1.85
333013,-0.14,-6.78,39.98,0.90,8.73,1.91
333048,-3.71,-5.60,39.09,0.94,8.73,1.90
333083,-4.01,-4.68,34.21,0.83,8.73,1.87
333118,-5.34,-3.73,29.46,0.78,8.73,1.80
333153,-5.22,-2.23,26.15,0.77,8.73,1.70
333188,-5.05,-0.96,23.73,0.88,8.73,1.67
333223,-1.98,-2.35,21.87,0.93,8.73,1.71
333258,0.28,-4.41,19.63,0.98,8.73,1.82
333293,5.51,-1.48,20.30,1.03,8.73,1.79
333328,11.42,-3.13,21.53,1.10,8.73,1.80
333363,13.32,-5.73,24.90,1.26,8.73,1.81
333398,12.93,-6.82,26.01,1.05,8.73,1.87
333433,12.72,-6.01,28.72,0.98,8.73,1.93
333468,11.17,-8.06,31.61,0.97,8.73,1.92
333503,8.69,-7.22,35.33,0.90,8.73,1.83
333538,6.50,-7.17,39.75,0.95,8.73,1.95
333578,2.20,-7.65,41.69,0.99,8.73,2.04
333613,-0.91,-8.10,38.81,0.92,8.73,2.02
333648,-3.30,-4.43,35.49,0.86,8.73,1.98
333683,-4.94,-6.19,32.69,0.89,8.73,1.95
333718,-5.84,-4.99,28.93,0.89,8.73,1.97
333753,-4.57,-4.38,25.09,0.93,8.73,1.98
333788,-6.06,-3.17,22.82,0.88,8.73,2.00
333824,-1.44,-5.32,20.13,0.98,8.73,2.16
333858,1.78,-2.67,17.72,0.89,8.73,1.99
333893,7.07,-7.77,18.15,0.74,8.73,2.11
333928,9.24,-2.88,19.75,0.79,8.73,1.97
333963,9.51,-1.71,22.16,0.99,8.73,1.91
333998,11.76,-2.70,26.02,1.21,8.73,1.99
334033,11.69,-3.22,30.63,1.38,8.73,2.09
334068,12.42,-8.86,35.55,1.49,8.73,2.29
334103,8.65,-6.76,37.24,1.27,8.73,2.27
334138,5.38,-8.75,36.83,1.03,8.73,2.04
334173,2.93,-6.78,38.08,1.15,8.73,1.68
334208,-0.75,-5.88,38.51,1.31,8.73,1.56
334243,-4.29,-7.55,39.06,1.31,8.73,1.73
334278,-5.47,-8.44,33.81,1.20,8.73,1.93
334314,-5.58,-6.74,28.98,0.92,8.73,1.99
334349,-3.92,-3.97,25.61,0.93,8.73,2.02
334384,-3.43,-4.43,22.41,0.96,8.73,2.07
334418,-0.36,-5.89,21.07,0.91,8.73,2.18
334453,1.02,-5.09,19.64,0.85,8.73,2.20
334488,6.54,-1.60,20.38,0.88,8.73,2.03
334523,10.01,-3.80,20.18,0.96,8.73,1.91
334558,12.18,-3.91,23.14,0.99,8.73,1.87
334593,13.26,-5.57,25.37,0.93,8.73,1.86
334628,13.25,-6.09,28.56,0.89,8.73,1.86
334663,11.78,-7.44,31.66,0.84,8.73,1.80
334698,9.57,-5.56,34.56,0.82,8.73,1.65
334733,7.00,-5.73,36.45,0.82,8.73,1.50
334768,3.95,-6.05,37.19,0.96,8.73,1.41
334803,0.23,-4.71,37.72,1.14,8.73,1.46
334839,-2.87,-6.25,35.54,1.11,8.73,1.64
334873,-4.99,-4.13,34.08,0.97,8.73,1.71
334908,-5.93,-4.26,29.69,0.79,8.73,1.70
334943,-6.15,-2.12,26.48,0.77,8.73,1.60
334978,-4.59,-1.07,22.95,0.83,8.73,1.53
335013,-2.66,0.09,18.98,0.85,8.73,1.49
335048,1.30,-1.95,17.29,0.98,8.73,1.59
335083,3.66,-1.77,17.16,0.98,8.73,1.65
335118,6.72,-3.52,17.75,0.98,8.73,1.70
335153,8.98,-4.11,19.05,0.97,8.73,1.75
335188,11.47,-4.88,22.32,0.96,8.73,1.77
335223,12.79,-5.39,25.60,0.93,8.73,1.76
335258,13.04,-5.23,28.81,0.91,8.73,1.73
335293,11.51,-6.02,31.88,0.87,8.73,1.69
335329,8.96,-5.96,34.00,0.89,8.73,1.66
335363,6.11,-5.62,35.66,0.86,8.73,1.68
335398,2.84,-6.79,36.42,0.87,8.73,1.80
335433,-0.26,-6.34,35.67,0.84,8.73,1.86
335468,-3.19,-5.19,33.26,0.87,8.73,1.83
335503,-4.87,-5.15,29.64,0.93,8.73,1.79
335538,-5.55,-4.49,27.20,0.95,8.73,1.79
335573,-7.39,-4.36,24.35,0.96,8.73,1.81
335613,-5.16,-3.55,20.69,1.00,8.73,1.89
335648,-1.76,-2.97,18.07,0.99,8.73,1.91
335683,1.38,-3.65,16.52,0.99,8.73,1.96
335718,4.79,-3.59,16.94,0.98,8.73,1.90
335753,7.25,-1.03,16.76,1.02,8.73,1.83
335788,9.76,-2.55,18.55,1.15,8.73,1.80
335823,10.19,-4.89,21.92,1.25,8.73,1.87
335858,12.75,-3.76,25.30,1.25,8.73,1.97
335893,11.97,-6.27,29.44,1.23,8.73,2.11
335928,11.46,-7.19,33.25,1.18,8.73,2.17
335963,8.97,-7.94,34.30,1.03,8.73,2.12
335998,5.81,-7.91,34.06,0.93,8.73,1.97
336033,2.41,-6.85,35.64,0.93,8.73,1.82
336068,-0.69,-6.33,35.08,0.97,8.73,1.79
336103,-3.68,-6.40,33.53,0.95,8.73,1.83
336138,-5.21,-5.74,30.79,0.95,8.73,1.85
336173,-6.33,-4.62,26.75,0.93,8.73,1.83
336208,-6.73,-3.65,23.29,0.87,8.73,1.79
336242,-3.47,-3.17,19.80,0.83,8.73,1.72
336277,-3.26,-1.90,17.00,0.83,8.73,1.66
336313,-0.15,-2.51,16.61,0.86,8.73,1.69
336347,1.62,-1.09,17.00,0.89,8.73,1.71
336382,5.34,-3.45,16.53,0.95,8.73,1.71
336417,9.88,-3.88,19.20,1.00,8.73,1.72
336452,12.33,-4.96,21.72,0.92,8.73,1.76
336487,13.35,-4.87,24.29,0.96,8.73,1.76
336522,13.58,-4.73,27.70,1.05,8.73,1.79
336557,11.25,-5.75,30.05,1.15,8.73,1.95
336592,9.61,-6.16,32.97,1.06,8.73,1.95
336627,6.12,-7.90,33.99,1.01,8.73,1.89
336662,3.25,-6.39,34.79,1.01,8.73,1.81
336697,-0.23,-5.80,35.79,1.05,8.73,1.74
336732,-2.14,-5.61,31.96,1.09,8.73,1.76
336767,-5.18,-5.74,30.23,1.07,8.73,1.79
336803,-8.07,-4.83,28.46,1.06,8.73,1.83
336838,-5.94,-5.08,23.77,0.98,8.73,1.88
336872,-4.61,-4.07,20.03,0.94,8.73,1.89
336907,-3.70,-5.00,17.82,0.94,8.73,1.95
336942,-0.67,-4.08,17.21,0.88,8.73,1.93
336977,1.18,-3.34,16.25,0.80,8.73,1.88
337012,4.95,-3.98,15.84,0.78,8.73,1.86
337047,8.63,-3.82,17.40,0.71,8.73,1.86
337082,10.51,-4.69,19.74,0.73,8.73,1.81
337117,12.51,-4.51,23.14,0.69,8.73,1.78
337152,13.46,-4.70,26.06,0.72,8.73,1.72
337187,11.99,-5.44,29.52,0.80,8.73,1.74
337223,10.05,-5.86,31.70,0.81,8.73,1.76
337257,7.98,-5.96,33.67,0.84,8.73,1.79
337292,4.36,-6.56,34.21,0.86,8.73,1.79
337327,1.25,-6.20,34.75,0.84,8.73,1.84
337363,-2.01,-4.73,34.89,0.88,8.73,1.81
337397,-4.63,-5.43,32.86,0.96,8.73,1.80
337432,-5.87,-3.53,29.89,1.00,8.73,1.80
337467,-5.39,-3.51,24.81,1.05,8.73,1.80
337502,-3.88,-3.47,20.69,1.04,8.73,1.80
337537,-4.21,-2.56,18.30,0.94,8.73,1.68
337572,-2.48,-1.50,17.07,0.92,8.73,1.54
337607,1.43,-0.50,16.05,0.97,8.73,1.40
337647,4.47,-0.28,16.08,1.12,8.73,1.32
337682,8.00,-1.73,16.68,1.18,8.73,1.41
337717,10.59,-6.47,18.87,0.96,8.73,1.61
337752,12.32,-6.99,21.32,0.70,8.73,1.62
337787,12.14,-5.75,25.64,0.52,8.73,1.47
337822,11.64,-6.43,28.49,0.43,8.73,1.25
337857,11.75,-5.02,31.11,0.50,8.73,1.02
337892,8.97,-3.61,34.01,0.70,8.73,0.90
337927,4.88,-2.64,34.99,0.85,8.73,0.94
337962,2.38,-5.15,36.02,1.05,8.73,1.18
337997,-0.27,-4.99,33.79,1.10,8.73,1.33
338032,-4.56,-6.82,33.01,0.99,8.73,1.49
338067,-5.75,-3.35,30.28,0.82,8.73,1.56
338102,-5.40,-2.53,25.83,0.83,8.73,1.52
338137,-6.64,-0.83,22.79,0.89,8.73,1.48
338172,-4.41,-1.14,19.84,0.99,8.73,1.46
338207,-2.43,-0.52,15.94,1.00,8.73,1.36
338242,0.45,0.66,14.70,1.06,8.73,1.27
338277,4.16,1.01,15.74,1.17,8.73,1.29
338312,6.71,-1.07,15.36,1.28,8.73,1.40
338347,8.71,-1.86,15.74,1.32,8.73,1.56
338383,10.68,-2.79,19.13,1.35,8.73,1.70
338417,11.98,-2.26,22.09,1.45,8.73,1.82
338452,11.94,-4.70,24.93,1.53,8.73,2.01
338487,11.66,-6.71,28.22,1.58,8.73,2.28
338522,8.61,-6.75,31.07,1.52,8.73,2.59
338557,7.20,-10.78,33.05,1.19,8.73,2.62
338592,3.57,-7.57,35.26,0.96,8.73,2.39
338627,0.65,-7.43,34.93,0.91,8.73,2.10
338662,-2.44,-6.33,33.74,0.93,8.73,2.00
338697,-4.16,-5.55,30.07,0.98,8.73,1.95
338732,-6.04,-4.87,26.73,1.11,8.73,1.96
338767,-5.58,-6.29,22.75,1.19,8.73,2.05
338802,-4.99,-6.31,19.85,1.22,8.73,2.19
338837,-3.78,-7.28,16.12,1.15,8.73,2.36
338872,-2.09,-8.01,14.31,1.00,8.73,2.50
338907,0.42,-7.21,13.93,0.78,8.73,2.46
338942,2.94,-3.88,14.19,0.66,8.73,2.22
338977,6.56,-3.62,14.95,0.67,8.73,2.04
339012,9.61,-3.30,17.77,0.77,8.73,1.91
339047,11.36,-2.30,19.65,0.92,8.73,1.85
339082,11.78,-3.81,23.83,1.02,8.73,1.87
339117,11.99,-5.98,26.50,1.02,8.73,1.90
339152,10.87,-6.94,29.52,0.93,8.73,1.88
339187,9.07,-6.99,32.61,0.83,8.73,1.73
339222,5.29,-6.31,34.85,0.82,8.73,1.49
339257,2.81,-5.32,35.64,0.98,8.73,1.39
339292,-0.34,-5.92,34.18,1.12,8.73,1.39
339327,-3.36,-4.62,31.81,1.18,8.73,1.41
339362,-5.84,-4.19,29.45,1.18,8.73,1.47
339397,-6.42,-5.25,26.19,1.04,8.73,1.54
339432,-7.07,-3.34,23.18,0.83,8.73,1.49
339467,-4.96,-0.62,20.64,0.80,8.73,1.37
339502,-3.48,0.67,17.76,0.85,8.73,1.22
339537,-1.22,1.92,15.92,0.97,8.73,1.08
339572,3.34,1.73,16.46,1.15,8.73,1.06
339607,4.75,-0.31,15.06,1.34,8.73,1.21
339641,5.86,-0.40,14.67,1.39,8.73,1.45
339681,8.88,-3.17,19.13,1.44,8.73,1.69
339716,11.60,-5.65,22.20,1.42,8.73,1.85
339751,12.15,-5.87,26.03,1.38,8.73,1.99
339786,11.37,-7.39,29.65,1.25,8.73,2.13
339821,9.75,-8.20,32.23,1.11,8.73,2.18
339856,7.36,-8.62,33.98,0.98,8.73,2.17
339891,2.96,-8.97,35.37,0.87,8.73,2.10
339926,0.70,-7.09,34.68,0.82,8.73,1.99
339961,-2.30,-7.11,31.73,0.74,8.73,1.91
339996,-5.68,-5.31,30.91,0.67,8.73,1.85
340031,-6.22,-5.46,27.78,0.61,8.73,1.77
340067,-5.60,-3.30,24.39,0.52,8.73,1.61
340101,-5.94,-0.10,22.02,0.51,8.73,1.36
340136,-4.45,0.76,19.40,0.62,8.73,1.21
340171,-3.99,1.22,17.61,0.80,8.73,1.07
340206,0.06,0.46,17.31,0.97,8.73,1.04
340241,4.13,-0.83,17.35,1.16,8.73,1.14
340276,7.90,-1.63,16.67,1.20,8.73,1.37
340311,12.50,-5.59,22.67,1.22,8.73,1.55
340346,13.27,-8.09,24.29,0.96,8.73,1.66
340381,13.78,-7.95,26.46,0.69,8.73,1.66
340416,12.16,-6.88,28.56,0.60,8.73,1.58
340451,10.14,-7.45,30.70,0.68,8.73,1.58
340486,7.90,-7.73,33.17,0.75,8.73,1.60
340521,4.88,-8.11,34.79,0.75,8.73,1.93
340556,0.88,-8.50,35.31,0.47,8.73,2.20
340591,-3.04,-8.01,33.38,0.19,8.73,2.21
340626,-4.94,-7.92,31.55,-0.23,8.73,2.13
340661,-4.87,-5.03,28.32,-0.55,8.73,1.84
340696,-9.28,0.42,29.73,-0.53,8.73,1.42
340731,-10.18,3.90,26.22,-0.48,8.73,0.90
340766,-10.80,7.34,25.37,-0.09,8.73,0.49
340801,-4.45,4.22,21.18,0.50,8.73,0.76
340836,3.60,0.77,19.37,0.90,8.73,0.77
340871,7.91,-0.23,19.05,1.15,8.73,0.96
340906,10.49,-1.38,19.50,1.24,8.73,1.20
340941,11.62,-7.19,22.26,1.26,8.73,1.46
340976,13.03,-7.88,26.07,1.14,8.73,1.55
341011,12.82,-7.78,29.34,0.98,8.73,1.57
341046,11.70,-7.01,31.18,0.94,8.73,1.50
341081,8.45,-8.49,32.20,1.03,8.73,1.57
341116,5.36,-7.81,32.95,1.07,8.73,1.69
341151,3.60,-8.02,34.96,0.94,8.73,2.04
341186,-0.29,-10.85,33.82,0.73,8.73,2.32
341221,-2.86,-6.86,32.71,0.59,8.73,2.24
341256,-6.11,-7.11,32.38,0.41,8.73,2.12
341291,-6.59,-4.72,28.49,0.40,8.73,1.99
341327,-6.60,-3.55,24.97,0.63,8.73,1.89
341361,-5.24,-4.19,21.81,0.87,8.73,1.94
341396,-3.62,-5.45,17.59,1.00,8.73,2.07
341431,0.40,-6.49,16.57,0.94,8.73,2.03
341466,2.61,-4.19,15.28,0.91,8.73,1.76
341502,4.62,-2.13,15.42,1.01,8.73,1.60
341536,7.86,-1.76,17.15,1.21,8.73,1.59
341571,10.98,-3.60,19.89,1.39,8.73,1.71
341606,12.64,-4.80,22.97,1.49,8.73,1.90
341641,12.80,-6.11,25.52,1.57,8.73,2.16
341676,11.53,-6.92,29.39,1.64,8.73,2.57
341716,8.67,-9.80,32.33,1.53,8.73,3.16
341751,6.62,-13.62,34.53,1.13,8.73,3.66
341786,2.21,-14.92,37.26,0.43,8.73,3.77
341821,-0.61,-10.04,40.52,-0.00,8.73,3.33
341856,-4.93,-6.98,39.92,-0.17,8.73,2.77
341891,-6.40,-6.19,35.63,-0.07,8.73,2.34
341925,-7.48,-6.66,30.51,-0.11,8.73,2.06
341960,-4.36,-2.68,26.81,-0.10,8.73,1.69
341995,-1.55,1.96,23.64,0.04,8.73,1.35
342030,-0.44,1.92,20.15,0.37,8.73,1.22
342066,4.28,-0.29,19.48,0.60,8.73,1.22
342100,8.06,-1.84,19.01,0.85,8.73,1.23
342135,11.87,-0.85,19.78,0.98,8.73,1.26
342170,11.97,-3.12,23.09,1.25,8.73,1.33
342205,14.04,-4.67,26.51,1.40,8.73,1.46
342240,13.93,-5.35,29.12,1.30,8.73,1.60
342275,11.35,-7.19,30.85,1.41,8.73,1.72
342310,9.33,-8.40,32.47,1.38,8.73,1.91
342346,5.95,-8.88,33.71,1.30,8.73,2.00
342380,3.15,-9.45,34.39,1.26,8.73,2.14
342415,-0.81,-8.40,35.09,1.22,8.73,2.18
342450,-2.79,-7.51,31.81,1.24,8.73,2.13
342485,-5.38,-7.14,28.41,1.21,8.73,2.12
342520,-6.39,-7.83,24.24,1.18,8.73,2.17
342555,-5.61,-7.25,20.38,1.06,8.73,2.19
342590,-3.82,-7.14,17.11,0.89,8.73,2.17
342625,-4.42,-4.89,15.03,0.71,8.73,2.06
342660,-1.36,-3.44,14.55,0.57,8.73,1.82
342695,0.69,-1.49,13.33,0.56,8.73,1.58
342730,4.34,-0.59,13.92,0.66,8.73,1.43
342765,7.67,-2.25,14.94,0.72,8.73,1.38
342800,10.13,-2.68,17.02,0.74,8.73,1.38
342835,12.47,-3.88,19.35,0.73,8.73,1.34
342870,11.92,-4.35,22.22,0.64,8.73,1.27
342905,11.88,-3.70,23.81,0.55,8.73,1.12
342940,10.33,-3.87,27.22,0.60,8.73,1.00
342975,8.26,-3.05,29.85,0.75,8.73,0.91
343010,6.54,-3.74,31.91,0.98,8.73,1.05
343045,3.61,-4.93,32.63,1.13,8.73,1.20
343080,0.11,-5.27,32.11,1.20,8.73,1.38
343115,-2.63,-4.88,30.13,1.27,8.73,1.46
343150,-5.03,-4.39,28.81,1.38,8.73,1.54
343185,-6.13,-4.47,25.90,1.43,8.73,1.68
343220,-7.06,-5.08,22.45,1.45,8.73,1.82
343255,-6.17,-5.12,18.78,1.37,8.73,1.96
343290,-6.04,-5.11,15.77,1.22,8.73,2.06
343326,-5.17,-3.26,13.74,1.06,8.73,2.06
343360,-0.32,-3.74,14.30,0.95,8.73,1.95
343395,3.11,-2.27,13.26,0.86,8.73,1.86
343430,3.67,-3.51,13.26,0.80,8.73,1.89
343465,7.50,-5.14,15.53,0.68,8.73,1.92
343500,10.98,-5.77,18.10,0.53,8.73,1.88
343536,12.15,-4.69,21.01,0.42,8.73,1.76
343570,12.30,-4.01,24.13,0.36,8.73,1.61
343605,11.95,-4.61,26.94,0.36,8.73,1.46
343640,10.45,-4.45,29.63,0.45,8.73,1.40
343675,8.37,-3.76,31.64,0.59,8.73,1.38
343710,5.06,-4.79,32.53,0.68,8.73,1.40
343750,1.18,-4.38,33.41,0.74,8.73,1.47
343785,-1.60,-4.42,31.16,0.76,8.73,1.45
343820,-4.08,-2.86,29.42,0.81,8.73,1.42
343855,-5.55,-2.81,25.88,0.80,8.73,1.42
343890,-6.20,-2.56,22.79,0.77,8.73,1.40
343925,-7.06,-1.46,20.07,0.75,8.73,1.35
343960,-6.66,-0.08,17.64,0.78,8.73,1.30
343995,-4.89,0.51,15.66,0.87,8.73,1.32
344030,0.01,0.58,14.65,0.99,8.73,1.37
344065,0.42,-0.23,12.74,1.07,8.73,1.44
344100,2.84,-0.95,12.45,1.14,8.73,1.50
344136,7.45,-1.72,14.17,1.20,8.73,1.60
344170,10.26,-2.52,17.09,1.23,8.73,1.69
344206,12.71,-3.29,19.67,1.26,8.73,1.78
344240,13.01,-4.29,22.59,1.24,8.73,1.88
344276,11.98,-5.67,25.32,1.19,8.73,1.97
344311,10.70,-6.76,27.74,1.05,8.73,1.99
344346,8.54,-6.83,29.62,0.93,8.73,1.93
344380,5.51,-6.62,31.06,0.84,8.73,1.78
344415,2.95,-4.89,31.57,0.81,8.73,1.61
344450,-0.52,-4.89,31.44,0.93,8.73,1.43
344486,-3.44,-3.58,29.75,0.96,8.73,1.43
344520,-5.99,-5.28,27.62,0.89,8.73,1.48
344555,-5.50,-4.34,23.77,0.67,8.73,1.48
344590,-5.77,-3.15,20.82,0.49,8.73,1.35
344625,-6.93,0.27,19.20,0.41,8.73,1.16
344660,-6.18,1.78,16.70,0.56,8.73,1.06
344695,-4.84,1.68,15.44,0.77,8.73,1.03
344730,-0.49,0.14,14.74,0.96,8.73,1.17
344765,3.31,-0.93,13.47,1.06,8.73,1.27
344800,7.73,-0.26,15.02,1.22,8.73,1.28
344836,9.78,-0.31,16.58,1.38,8.73,1.36
344870,11.79,-2.96,18.74,1.49,8.73,1.50
344905,12.34,-3.83,21.01,1.49,8.73,1.67
344940,12.72,-5.82,23.38,1.47,8.73,1.84
344975,12.09,-7.64,26.65,1.40,8.73,1.99
345010,9.26,-7.82,29.08,1.25,8.73,2.06
345045,7.58,-7.88,31.02,1.11,8.73,2.05
345080,3.87,-8.54,32.54,0.99,8.73,2.10
345115,0.59,-8.32,32.36,0.85,8.73,2.14
345150,-2.36,-7.40,31.20,0.68,8.73,2.15
345185,-4.57,-6.35,29.02,0.52,8.73,2.08
345220,-6.90,-4.58,27.10,0.43,8.73,1.97
345255,-7.71,-3.74,24.22,0.47,8.73,1.85
345290,-6.78,-3.71,20.54,0.52,8.73,1.82
345326,-5.49,-4.18,17.21,0.60,8.73,1.88
345360,-4.41,-4.72,14.44,0.64,8.73,1.99
345395,0.13,-5.43,13.49,0.58,8.73,2.03
345430,3.22,-7.55,12.15,0.43,8.73,2.07
345466,5.81,-7.06,12.86,0.28,8.73,2.04
345500,7.64,-5.81,13.20,0.17,8.73,1.92
345535,9.54,-3.70,16.11,0.13,8.73,1.76
345570,11.42,-2.63,19.66,0.23,8.73,1.59
345605,12.73,-1.23,22.63,0.47,8.73,1.50
345640,12.07,-2.61,25.13,0.70,8.73,1.54
345675,10.66,-4.63,27.10,0.82,8.73,1.63
345710,8.39,-5.72,28.71,0.85,8.73,1.71
345745,5.55,-6.01,30.04,0.82,8.73,1.71
345785,2.13,-6.03,31.45,0.78,8.73,1.74
345821,-0.66,-5.26,31.41,0.77,8.73,1.75
345855,-3.56,-4.95,30.21,0.77,8.73,1.75
345890,-5.77,-4.92,28.13,0.85,8.73,1.71
345925,-6.56,-4.29,24.85,0.95,8.73,1.71
345960,-6.30,-3.20,21.23,1.11,8.73,1.78
345995,-5.38,-3.62,17.59,1.30,8.73,1.96
346030,-4.02,-6.39,14.06,1.35,8.70,2.23
346065,-2.57,-6.18,12.64,1.19,8.67,2.28
346101,-0.40,-3.14,12.12,1.02,8.73,2.11
346135,2.52,-1.38,12.28,1.03,8.73,1.85
346170,7.35,0.48,14.04,1.19,8.73,1.64
346205,10.78,-0.14,14.97,1.43,8.73,1.55
346240,11.88,-2.40,16.67,1.58,8.68,1.64
346275,11.49,-4.44,18.81,1.62,8.59,1.82
346310,11.83,-6.20,21.43,1.54,8.53,2.00
346346,11.60,-7.08,23.55,1.36,8.48,2.17
346380,10.43,-6.44,26.42,1.15,8.53,2.25
346415,8.00,-9.31,27.91,0.99,8.62,2.32
346450,4.73,-7.26,29.92,0.80,8.67,2.34
346485,2.08,-7.28,30.49,0.58,8.73,2.35
346520,-0.95,-5.93,31.18,0.40,8.73,2.23
346555,-3.46,-5.01,29.27,0.37,8.73,2.00
346590,-5.76,-4.17,26.38,0.46,8.73,1.77
346625,-6.28,-3.62,22.85,0.49,8.73,1.64
346660,-7.19,-2.44,20.14,0.51,8.73,1.53
346695,-5.75,-1.67,17.28,0.54,8.73,1.42
346730,-4.92,-0.50,14.73,0.57,8.73,1.26
346765,-2.99,0.23,13.40,0.66,8.73,1.08
346800,-1.30,1.22,11.38,0.83,8.73,0.99
346836,0.92,1.87,12.52,1.03,8.73,1.04
346870,3.84,-1.83,13.92,1.19,8.73,1.19
346905,8.38,-3.97,14.07,1.29,8.73,1.37
346940,10.71,-3.98,16.74,1.24,8.73,1.52
346975,11.10,-4.79,19.69,1.35,8.73,1.62
347010,11.68,-4.91,23.22,1.37,8.73,1.74
347045,11.12,-6.18,26.55,1.39,8.73,1.94
347080,9.80,-7.80,28.73,1.32,8.73,2.15
347115,8.03,-8.83,32.10,1.16,8.73,2.22
347150,4.31,-8.82,31.94,0.98,8.73,2.17
347185,1.28,-7.51,32.53,0.89,8.73,2.05
347220,-1.77,-6.96,31.22,0.87,8.73,1.89
347255,-4.80,-6.37,29.10,0.81,8.73,1.82
347290,-6.70,-5.61,26.41,0.80,8.73,1.77
347326,-6.55,-5.74,23.18,0.68,8.73,1.72
347360,-7.16,-4.02,20.10,0.53,8.73,1.58
347395,-7.26,-1.50,18.00,0.46,8.73,1.36
347430,-5.72,0.37,16.12,0.55,8.73,1.21
347465,-1.09,0.36,14.30,0.73,8.73,1.11
347500,0.82,0.56,13.47,0.91,8.73,1.08
347535,4.98,-0.19,15.20,1.10,8.73,1.14
347570,7.08,-0.88,15.40,1.25,8.73,1.26
347605,9.95,-2.79,17.35,1.40,8.73,1.42
347640,11.84,-6.35,20.68,1.38,8.73,1.59
347675,12.78,-6.25,24.27,1.31,8.73,1.74
347710,11.90,-7.09,27.67,1.21,8.73,1.84
347745,10.24,-8.72,30.64,1.11,8.73,1.93
347780,7.41,-8.10,32.08,0.99,8.73,1.91
347820,3.06,-8.76,32.86,0.85,8.73,1.91
347855,-0.34,-7.96,32.49,0.75,8.73,1.91
347890,-2.26,-7.70,30.32,0.54,8.73,2.01
347925,-4.76,-6.56,29.29,0.29,8.73,1.94
347960,-5.11,-5.18,26.83,0.14,8.73,1.78
347995,-5.83,-2.54,23.87,0.12,8.73,1.54
348030,-7.10,0.16,21.66,0.22,8.73,1.29
348065,-8.86,-0.13,21.05,0.33,8.73,1.15
348100,-3.38,0.45,16.64,0.67,8.73,1.14
348135,-1.10,0.97,14.61,0.88,8.73,1.16
348170,2.91,-0.58,15.27,1.07,8.73,1.06
348205,7.41,1.22,15.11,1.31,8.73,1.07
348240,8.82,1.42,17.00,1.64,8.73,1.18
348275,11.57,-2.61,21.13,1.83,8.73,1.43
348310,12.76,-5.91,24.04,1.84,8.73,1.73
348346,11.90,-7.28,27.13,1.72,8.73,1.97
348380,10.78,-9.65,29.87,1.59,8.73,2.18
348415,8.40,-9.32,32.12,1.37,8.73,2.27
348451,5.23,-10.50,33.42,1.19,8.73,2.32
348485,1.94,-9.28,34.49,0.92,8.73,2.35
348520,-1.22,-10.12,33.86,0.72,8.73,2.37
348555,-3.55,-9.22,30.10,0.42,8.73,2.33
348590,-5.98,-5.53,29.25,0.19,8.73,2.14
348625,-7.22,-3.97,26.47,0.10,8.73,1.93
348660,-8.51,-2.80,23.44,0.10,8.73,1.68
348695,-7.05,-0.95,20.97,0.26,8.73,1.52
348730,-2.76,-1.18,17.61,0.40,8.73,1.41
348765,0.31,-0.71,16.19,0.60,8.73,1.33
348800,1.54,0.42,15.97,0.76,8.73,1.20
348836,4.62,0.42,16.17,0.99,8.73,1.11
348870,9.12,-0.84,17.36,1.27,8.73,1.13
348905,12.32,-1.80,21.83,1.48,8.73,1.21
348940,13.66,-4.55,23.72,1.58,8.73,1.36
348975,13.20,-4.91,26.47,1.64,8.73,1.54
349010,11.38,-7.20,28.60,1.57,8.73,1.67
349045,9.15,-7.49,30.24,1.43,8.73,1.62
349080,6.22,-7.20,31.64,1.40,8.73,1.52
349115,3.09,-6.37,32.33,1.45,8.73,1.40
349150,0.33,-6.26,32.56,1.69,8.73,1.32
349185,-1.82,-5.49,29.89,1.88,8.73,1.42
349220,-4.49,-6.20,28.95,2.09,8.73,1.55
349255,-6.17,-9.27,26.28,2.15,8.73,1.87
349290,-6.10,-11.05,22.73,2.02,8.73,2.19
349326,-6.91,-9.82,20.03,1.74,8.73,2.37
349360,-6.93,-8.52,17.72,1.40,8.73,2.42
349395,-5.17,-6.25,15.19,1.14,8.73,2.38
349430,0.14,-4.77,14.18,0.92,8.73,2.20
349465,3.01,-3.47,13.51,0.82,8.73,1.99
349500,5.50,-2.30,13.54,0.82,8.73,1.86
349535,8.33,-1.87,14.99,0.86,8.73,1.78
349570,10.72,-1.74,18.37,1.02,8.73,1.74
349605,12.08,-3.70,20.98,1.09,8.73,1.78
349640,12.50,-4.03,23.67,1.10,8.73,1.86
349675,11.20,-6.73,26.20,1.05,8.73,1.93
349710,10.03,-7.07,29.63,0.92,8.73,1.88
349745,8.01,-6.98,31.72,0.84,8.73,1.73
349780,5.13,-5.07,33.68,0.85,8.73,1.54
349816,1.40,-6.05,34.34,0.88,8.73,1.53
349855,-1.84,-5.29,32.89,0.84,8.73,1.57
349891,-5.17,-4.30,31.65,0.72,8.73,1.62
349925,-6.60,-3.32,28.72,0.63,8.73,1.58
349960,-6.20,-2.84,25.65,0.54,8.73,1.45
349995,-6.59,0.27,23.12,0.52,8.73,1.31
350030,-5.55,0.52,19.62,0.64,8.73,1.20
350065,-1.60,2.15,17.61,0.80,8.73,1.10
350100,0.92,0.15,15.86,0.99,8.73,1.23
350135,3.58,-2.00,15.79,1.09,8.73,1.38
350170,6.87,-2.47,16.35,1.11,8.73,1.55
350205,9.61,-5.11,17.69,1.06,8.73,1.67
350240,11.80,-5.62,19.84,1.01,8.73,1.75
350275,12.59,-5.47,23.79,0.94,8.73,1.80
350310,12.31,-6.09,26.31,0.93,8.73,1.81
350346,10.96,-6.99,29.29,0.95,8.73,1.90
350381,8.75,-6.34,31.86,0.91,8.73,1.97
350416,6.22,-8.12,33.81,0.87,8.73,2.16
350450,2.83,-7.72,35.87,0.73,8.73,2.28
350485,-0.54,-8.57,36.58,0.55,8.73,2.32
350520,-3.59,-6.95,35.07,0.40,8.73,2.21
350555,-5.15,-4.58,32.09,0.37,8.73,2.04
350590,-4.59,-4.37,27.27,0.34,8.73,1.87
350625,-6.15,-3.11,23.74,0.39,8.73,1.71
350660,-5.32,-1.01,21.20,0.38,8.73,1.54
350695,-3.28,0.43,19.12,0.52,8.73,1.39
350730,-0.49,0.55,17.80,0.66,8.73,1.36
350765,2.60,-2.51,17.32,0.74,8.73,1.43
350800,5.27,-3.21,17.26,0.77,8.73,1.57
350835,9.63,-4.70,19.14,0.71,8.73,1.61
350870,11.83,-5.23,23.41,0.75,8.73,1.62
350905,13.14,-4.90,25.85,0.70,8.73,1.57
350940,13.12,-2.89,29.17,0.89,8.73,1.57
350975,11.40,-3.59,31.62,1.14,8.73,1.78
351010,9.25,-6.20,33.87,1.30,8.73,2.11
351045,5.81,-7.48,35.34,1.19,8.73,2.32
351080,2.21,-8.11,35.63,1.05,8.73,2.33
351114,-0.82,-6.78,35.55,1.06,8.73,2.17
351149,-3.65,-4.64,33.42,1.32,8.73,1.98
351184,-5.58,-6.45,30.79,1.55,8.73,2.03
351219,-6.52,-8.55,26.60,1.68,8.73,2.27
351254,-7.25,-10.06,22.44,1.64,8.73,2.53
351289,-5.92,-10.13,19.56,1.46,8.73,2.81
351325,-4.06,-9.10,17.21,1.18,8.73,2.90
351359,0.35,-7.09,17.01,0.85,8.73,2.72
351394,2.33,-6.47,16.83,0.64,8.73,2.45
351429,5.93,-4.50,17.69,0.54,8.73,2.23
351464,10.07,-4.10,19.41,0.52,8.73,2.09
351499,11.71,-5.31,23.03,0.49,8.73,1.95
351534,12.70,-5.73,26.25,0.46,8.73,1.79
351569,12.82,-3.90,30.11,0.44,8.73,1.63
351604,11.39,-5.19,33.10,0.59,8.73,1.52
351638,9.91,-4.67,35.99,0.66,8.73,1.38
351673,5.79,-3.87,36.23,0.82,8.73,1.23
351707,2.22,-3.57,37.15,0.99,8.73,1.21
351742,-0.44,-3.66,37.35,1.15,8.73,1.27
351776,-3.79,-4.84,34.80,1.33,8.73,1.36
351811,-6.10,-4.25,32.15,1.31,8.73,1.50
351847,-5.64,-4.67,27.24,1.25,8.73,1.60
351886,-4.87,-2.39,23.20,1.13,8.73,1.57
351921,-5.04,-1.09,20.39,1.13,8.73,1.56
351956,-1.60,0.23,19.56,1.21,8.73,1.56
351991,2.34,0.38,18.46,1.28,8.73,1.58
352026,5.19,-0.35,18.73,1.47,8.73,1.58
352061,7.99,0.91,19.85,1.55,8.73,1.70
352096,10.43,-1.08,22.83,1.73,8.73,1.83
352131,12.45,-3.19,24.91,1.76,8.73,2.04
352166,13.40,-7.36,27.06,1.62,8.73,2.23
352201,11.98,-8.67,30.65,1.40,8.73,2.29
352236,10.33,-8.53,32.78,1.14,8.73,2.26
352270,8.04,-7.92,35.03,0.95,8.73,2.09
352305,4.63,-7.69,36.32,0.90,8.73,1.93
352341,1.19,-6.60,36.14,0.89,8.73,1.88
352375,-2.19,-5.91,35.54,0.94,8.73,1.83
352410,-4.27,-5.09,32.99,0.94,8.73,1.81
352445,-5.03,-4.54,29.17,0.96,8.73,1.81
352480,-5.02,-4.67,25.98,0.89,8.73,1.80
352515,-4.56,-3.05,23.14,0.91,8.73,1.80
352550,-4.54,-2.04,20.42,0.91,8.73,1.81
352585,-1.25,-3.10,19.37,0.98,8.73,1.80
352620,-0.02,-3.13,18.30,0.97,8.73,1.85
352656,5.37,-3.47,17.79,1.00,8.73,1.84
352690,9.59,-2.93,19.90,1.05,8.73,1.82
352726,11.93,-2.55,21.89,1.29,8.73,1.77
352760,12.55,-4.07,24.80,1.36,8.73,1.85
352796,12.79,-5.60,28.20,1.35,8.73,1.99
352831,11.66,-7.86,31.32,1.24,8.73,2.07
352865,9.32,-7.15,33.73,1.14,8.73,2.08
352900,6.30,-8.09,35.64,1.06,8.73,2.12
352935,3.65,-8.30,36.50,0.99,8.73,2.16
352970,0.17,-7.15,37.18,0.86,8.73,2.18
353005,-2.96,-6.93,35.02,0.82,8.73,2.14
353040,-4.64,-5.66,31.93,0.76,8.73,2.04
353075,-6.44,-6.41,29.06,0.75,8.73,2.00
353110,-8.32,-3.93,26.67,0.70,8.73,1.93
353145,-6.54,-4.38,23.86,0.80,8.73,2.00
353180,-4.87,-4.65,20.57,0.81,8.73,2.08
353215,0.24,-6.65,18.41,0.73,8.73,2.15
353250,5.13,-5.31,18.63,0.58,8.73,2.17
353285,7.51,-6.53,18.19,0.48,8.73,2.07
353321,10.49,-6.05,19.96,0.40,8.73,1.97
353355,12.36,-6.42,22.03,0.30,8.73,1.86
353390,12.50,-4.51,25.78,0.35,8.73,1.70
353425,12.22,-3.99,29.25,0.56,8.73,1.65
353460,12.23,-4.35,33.08,0.75,8.73,1.67
353495,8.48,-5.78,34.86,0.82,8.73,1.73
353530,5.21,-6.43,35.64,0.84,8.73,1.83
353565,2.19,-6.53,36.72,0.83,8.73,1.89
353600,-0.70,-4.98,37.24,0.81,8.73,1.88
353635,-4.37,-6.64,35.60,0.83,8.73,1.89
353670,-5.54,-3.77,33.44,0.90,8.73,1.89
353705,-6.31,-4.41,28.99,1.05,8.73,1.94
353740,-5.06,-4.36,24.48,1.18,8.73,2.02
353775,-4.56,-5.79,20.60,1.24,8.73,2.21
353810,-2.01,-6.62,18.48,1.16,8.73,2.36
353846,0.27,-6.39,17.49,1.01,8.73,2.30
353880,4.78,-3.05,18.31,0.97,8.73,2.13
353920,8.63,-1.98,19.34,1.06,8.73,1.98
353956,10.96,-2.81,22.98,1.22,8.73,1.92
353990,13.96,-4.71,25.90,1.26,8.73,2.00
354025,13.94,-5.65,28.84,1.21,8.73,2.07
354060,12.19,-6.80,30.97,1.18,8.73,2.17
354094,10.12,-6.90,33.40,1.03,8.73,2.19
354129,8.14,-6.45,35.90,0.91,8.73,2.13
354165,4.26,-7.72,36.97,0.81,8.73,2.12
354199,0.46,-7.54,37.81,0.76,8.73,2.09
354234,-2.13,-4.49,36.65,0.77,8.73,1.99
354269,-5.43,-5.94,34.33,0.84,8.73,1.96
354304,-5.99,-3.75,30.19,0.97,8.73,1.91
354340,-4.62,-4.52,25.17,0.99,8.73,1.92
354375,-4.98,-3.80,22.09,1.08,8.73,1.99
354409,-4.73,-4.86,19.25,1.06,8.73,2.07
354444,-0.51,-4.76,18.77,1.00,8.73,2.04
354479,1.77,-3.64,18.10,0.96,8.73,2.00
354514,5.83,-2.63,18.39,1.01,8.73,1.93
354549,9.69,-2.75,20.75,1.09,8.73,1.90
354584,12.12,-5.46,23.50,1.18,8.73,1.90
354619,13.42,-5.22,26.77,1.13,8.73,1.94
354654,12.31,-5.10,29.65,1.16,8.73,2.04
354689,11.40,-7.52,32.32,1.18,8.73,2.17
354724,9.18,-7.60,35.15,1.11,8.73,2.24
354759,5.60,-8.38,36.44,0.98,8.73,2.42
354794,2.42,-8.62,38.12,0.79,8.73,2.47
354830,-1.30,-8.03,37.81,0.71,8.73,2.34
354864,-4.58,-5.85,35.99,0.69,8.73,2.17
354899,-5.85,-5.11,32.18,0.92,8.73,2.06
354934,-5.76,-5.36,27.46,1.10,8.73,2.07
354969,-6.47,-6.05,23.61,1.14,8.73,2.16
355005,-7.46,-6.49,21.88,1.05,8.73,2.23
355039,-2.18,-4.73,20.86,0.93,8.73,2.20
355074,2.84,-4.48,19.86,0.83,8.73,1.95
355109,5.56,-1.78,19.01,0.90,8.73,1.82
355144,9.96,0.71,19.80,1.11,8.73,1.68
355179,11.82,-2.04,22.78,1.25,8.73,1.68
355214,12.65,-3.17,24.93,1.31,8.73,1.79
355249,12.95,-5.66,28.11,1.32,8.73,1.87
355284,11.58,-7.71,31.20,1.27,8.73,1.89
355320,9.91,-6.99,34.28,1.11,8.73,1.77
355355,7.45,-6.55,36.52,1.14,8.73,1.63
355390,4.19,-6.36,38.12,1.20,8.73,1.47
355425,0.80,-6.11,37.84,1.48,8.73,1.38
355459,-2.80,-5.61,35.74,1.70,8.73,1.47
355494,-4.86,-7.91,33.80,1.82,8.73,1.69
355529,-6.92,-7.80,30.03,1.71,8.73,1.92
355564,-6.64,-7.82,25.98,1.49,8.73,2.08
355599,-6.71,-4.81,23.16,1.30,8.73,2.07
355634,-4.85,-4.35,20.79,1.09,8.73,1.96
355669,-0.96,-3.13,20.10,1.05,8.73,1.83
355704,2.80,-0.97,19.13,1.04,8.73,1.74
355739,5.80,-3.33,19.75,1.10,8.73,1.77
355774,10.49,-4.06,21.32,1.05,8.73,1.85
355809,12.71,-7.77,24.04,0.81,8.73,1.90
355845,13.34,-7.89,27.74,0.51,8.73,1.78
355879,12.48,-5.97,30.17,0.36,8.73,1.54
355914,10.78,-5.91,33.51,0.45,8.73,1.29
355954,9.11,-4.42,37.09,0.69,8.73,1.22
356024,1.30,-5.90,37.20,0.85,8.73,1.64
356059,-1.52,-4.44,36.31,0.80,8.73,1.71
356094,-4.57,-4.36,34.31,0.71,8.73,1.73
356130,-4.71,-4.02,30.46,0.60,8.73,1.68
356164,-5.43,-1.78,27.06,0.50,8.73,1.56
356199,-3.76,2.03,24.93,0.52,8.73,1.36
356233,-3.39,1.71,21.81,0.72,8.73,1.30
356268,-2.51,0.13,19.09,0.96,8.73,1.52
356303,0.66,-4.94,18.67,0.97,8.73,1.89
356339,4.65,-5.71,18.36,0.90,8.73,2.05
356373,9.08,-4.58,20.00,0.78,8.73,2.08
356408,12.02,-5.13,23.41,0.81,8.73,1.99
356443,13.51,-4.86,26.15,0.80,8.73,1.92
356478,13.93,-4.75,29.10,0.88,8.73,1.91
356513,11.69,-6.59,31.12,0.97,8.73,2.03
356548,9.51,-7.01,33.75,0.93,8.73,2.07
356583,6.77,-6.99,35.98,0.82,8.73,2.02
356618,3.52,-7.60,37.35,0.77,8.73,1.99
356653,0.43,-5.44,37.25,0.70,8.73,1.96
356688,-3.34,-7.05,35.00,0.69,8.73,1.93
356723,-5.27,-4.69,32.90,0.57,8.73,1.89
356758,-6.20,-3.96,29.76,0.49,8.73,1.81
356793,-7.04,-2.30,27.05,0.54,8.73,1.68
356829,-6.91,-1.44,24.69,0.63,8.73,1.67
356863,-3.66,-1.87,21.65,0.78,8.73,1.68
356898,1.37,-3.20,19.78,0.83,8.73,1.80
356933,5.34,-4.14,19.01,0.82,8.73,1.90
356968,8.53,-4.28,18.75,0.80,8.73,1.85
357003,11.31,-4.14,20.86,0.82,8.73,1.81
357038,12.37,-4.13,23.55,0.87,8.73,1.71
357074,12.70,-4.39,25.86,0.96,8.73,1.69
357108,12.41,-4.90,29.27,1.02,8.73,1.74
357143,11.48,-6.87,32.56,1.08,8.73,1.80
357178,9.27,-6.07,35.85,1.05,8.73,1.78
357213,5.38,-5.45,37.55,1.06,8.73,1.79
357248,2.30,-7.06,36.43,1.06,8.73,1.85
357283,-1.17,-5.78,37.03,1.07,8.73,1.84
357319,-3.61,-5.53,34.93,1.05,8.73,1.89
357353,-5.23,-5.54,32.54,1.10,8.73,1.95
357388,-5.50,-5.25,28.23,1.11,8.73,2.00
357423,-5.28,-5.90,24.07,1.15,8.73,2.11
357458,-4.10,-5.69,19.76,1.10,8.73,2.23
357493,-2.38,-6.74,17.23,1.00,8.73,2.28
357528,1.17,-5.76,16.58,0.84,8.73,2.25
357563,4.87,-5.02,17.26,0.73,8.73,2.20
357598,8.47,-3.79,19.09,0.68,8.73,2.10
357633,11.37,-5.37,21.78,0.67,8.73,2.02
357668,13.59,-6.17,24.03,0.59,8.73,1.94
357703,12.92,-5.15,27.23,0.64,8.73,1.85
357738,12.43,-5.54,30.12,0.74,8.73,1.86
357773,10.47,-5.43,33.29,0.80,8.73,1.90
357808,8.22,-6.41,36.13,0.79,8.73,1.93
357843,4.42,-6.86,37.00,0.80,8.73,1.93
357878,1.13,-5.42,37.49,0.72,8.73,1.93
357913,-2.31,-5.39,35.60,0.76,8.73,1.83
357949,-5.38,-4.08,34.55,0.87,8.73,1.72
357988,-6.25,-3.43,30.25,0.97,8.73,1.72
358023,-6.83,-4.32,26.14,1.00,8.73,1.73
358058,-5.42,-2.77,23.27,1.04,8.73,1.72
358093,-4.04,-2.15,19.78,1.01,8.73,1.67
358128,1.48,-0.92,18.24,1.07,8.73,1.55
358163,4.64,-0.09,18.74,1.15,8.73,1.42
358198,4.36,1.68,18.06,1.33,8.73,1.43
358233,9.55,-2.96,20.71,1.48,8.73,1.53
358268,13.04,-3.09,22.92,1.47,8.73,1.74
358303,12.56,-6.98,24.72,1.35,8.73,1.91
358338,12.22,-6.91,29.20,1.28,8.73,1.99
358373,11.19,-7.85,32.43,1.18,8.73,2.04
358408,9.43,-7.96,35.17,1.11,8.73,1.98
358443,5.61,-7.69,36.18,1.04,8.73,1.90
358478,2.50,-7.35,37.16,1.05,8.73,1.81
358513,-1.12,-6.67,37.11,1.05,8.73,1.81
358548,-3.59,-6.83,34.57,1.04,8.73,1.84
358583,-5.66,-5.47,31.73,1.04,8.73,1.84
358618,-6.45,-4.77,27.77,1.05,8.73,1.84
358653,-7.04,-4.27,25.03,0.98,8.73,1.82
358688,-5.83,-2.75,21.67,0.94,8.73,1.76
358723,-2.51,-1.85,19.24,0.91,8.73,1.69
358758,1.07,0.55,18.14,0.99,8.73,1.44
358793,4.24,0.83,19.41,1.13,8.73,1.34
358827,7.67,-2.56,19.81,1.27,8.73,1.42
358862,10.51,-2.77,21.72,1.27,8.73,1.59
