timestamp,accelX,accelY,accelZ,gyroX,gyroY,gyroZ
320725,0.17,-13.50,15.50,0.70,8.73,3.22
320760,1.92,-13.58,15.56,0.04,8.73,3.40
320795,6.21,-9.14,18.63,-0.18,8.73,2.99
320830,10.37,-8.54,24.35,-0.58,8.73,2.59
320865,12.86,-7.91,29.05,-0.51,8.73,2.16
320900,13.79,-3.76,33.95,-0.35,8.73,1.76
320935,11.57,-5.48,37.20,-0.16,8.73,1.55
320970,9.16,-2.90,39.22,0.09,8.73,1.44
321010,4.55,-6.37,39.01,0.32,8.73,1.66
321045,-0.44,-2.73,38.49,0.07,8.73,1.85
321080,-1.56,-2.72,36.65,0.04,8.73,1.57
321115,-4.20,0.28,32.38,0.07,8.73,1.32
321150,-4.56,2.89,31.16,0.27,8.73,1.09
321185,-6.71,2.30,28.24,0.44,8.73,0.87
321220,-6.48,3.04,24.93,0.57,8.73,0.73
321255,-2.56,7.70,22.78,0.84,8.73,0.35
321289,2.46,10.77,22.09,1.24,8.73,0.11
321325,3.36,8.85,22.80,1.88,8.73,0.08
321359,3.75,5.90,18.96,2.27,8.73,0.51
321394,7.54,2.88,23.70,2.63,8.73,1.12
321429,11.10,-5.32,28.69,2.41,8.73,1.73
321464,14.31,-8.09,33.64,2.18,8.73,2.15
321499,13.42,-9.18,37.28,1.92,8.73,2.39
321534,10.24,-8.38,39.97,1.69,8.73,2.47
321569,5.54,-9.78,40.55,1.50,8.73,2.48
321604,3.01,-7.27,44.07,1.42,8.73,2.14
321639,0.39,-7.25,43.33,1.84,8.73,1.84
321674,-2.94,-6.70,42.08,2.52,8.73,1.77
321709,-4.52,-11.89,37.98,2.97,8.73,2.19
321744,-5.04,-19.15,31.96,2.81,8.73,2.76
321779,-7.54,-15.88,29.47,2.19,8.73,3.00
321815,-4.82,-10.89,27.24,1.55,8.73,2.80
321849,-1.23,-5.03,26.25,1.25,8.73,2.44
321884,4.15,-2.69,26.63,1.29,8.73,2.18
321919,8.56,-3.10,27.70,1.36,8.73,2.14
321954,13.67,-4.40,30.95,1.31,8.73,2.27
321989,14.28,-8.18,33.57,1.20,8.73,2.31
322024,14.41,-7.53,35.95,1.30,8.73,2.34
322059,12.90,-8.09,39.48,1.37,8.73,2.58
322094,9.73,-10.15,41.29,1.32,8.73,2.96
322129,5.71,-11.25,44.31,1.09,8.73,3.11
322165,2.16,-11.43,45.74,0.77,8.73,3.04
322199,-1.43,-8.54,44.10,0.67,8.73,2.78
322234,-3.84,-5.29,41.22,0.95,8.73,2.50
322269,-4.16,-6.20,36.95,1.30,8.73,2.47
322304,-1.75,-12.05,30.99,1.45,8.73,2.64
322339,-6.62,-13.24,29.59,1.31,8.73,2.81
322374,-3.61,-8.47,28.17,1.08,8.73,2.70
322409,1.06,-5.66,26.66,0.91,8.73,2.41
322444,6.75,-3.15,25.96,0.98,8.73,2.20
322479,11.02,-4.65,27.70,1.04,8.73,2.16
322514,12.36,-4.36,31.21,1.05,8.73,2.13
322549,13.47,-6.15,34.12,1.05,8.73,2.14
322584,13.67,-8.73,37.46,1.02,8.73,2.13
322619,12.62,-7.34,41.13,0.93,8.73,2.03
322655,9.03,-7.20,44.07,0.94,8.73,1.99
322689,4.32,-8.53,44.30,1.02,8.73,1.82
322724,0.85,-7.90,44.71,1.30,8.73,1.69
322759,-2.87,-7.86,43.28,1.57,8.73,1.74
322794,-5.05,-7.43,40.74,1.71,8.73,1.92
322829,-6.59,-10.64,35.94,1.53,8.73,2.05
322864,-4.47,-6.84,32.07,1.28,8.73,2.02
322899,-3.39,-3.53,28.59,1.17,8.73,1.87
322934,2.34,-0.59,26.28,1.27,8.73,1.59
322969,6.02,0.46,27.18,1.52,8.73,1.53
323004,8.15,0.42,27.12,1.69,8.73,1.65
323044,11.60,-4.07,29.58,1.96,8.73,1.93
323079,12.63,-7.01,33.34,1.95,8.73,2.21
323114,12.79,-9.11,37.06,1.81,8.73,2.42
323149,12.12,-10.63,41.21,1.56,8.73,2.56
323185,8.74,-11.83,43.73,1.35,8.73,2.54
323219,5.06,-10.06,45.05,1.17,8.73,2.41
323254,1.15,-8.26,45.60,1.09,8.73,2.31
323289,-1.30,-10.97,43.39,1.07,8.73,2.30
323323,-2.27,-6.26,40.17,1.07,8.73,2.29
323358,-3.07,-9.62,35.15,1.03,8.73,2.28
323393,-4.85,-5.54,32.84,0.86,8.73,2.19
323428,-2.43,-4.57,29.14,0.77,8.73,2.11
323463,-1.28,-2.75,26.18,0.78,8.73,1.97
323498,1.57,-3.19,24.95,0.80,8.73,1.99
323533,6.24,-6.75,24.06,0.81,8.73,2.02
323568,10.13,-8.80,25.08,0.76,8.73,2.05
323603,10.66,-6.74,28.77,0.66,8.73,1.97
323637,12.52,-6.70,34.86,0.61,8.73,1.85
323671,13.72,-7.15,37.68,0.69,8.73,1.67
323706,12.61,-5.28,40.89,0.81,8.73,1.61
323740,8.63,-6.67,43.56,0.96,8.73,1.66
323775,4.40,-8.72,44.44,1.10,8.73,1.73
323810,0.82,-10.75,44.61,1.18,8.73,1.88
323845,-2.97,-6.40,43.05,1.16,8.73,1.94
323880,-4.09,-5.53,37.94,1.13,8.73,1.94
323915,-5.24,-5.20,34.27,1.10,8.73,1.93
323950,-4.44,-3.08,30.76,1.03,8.73,1.91
323985,-3.46,-3.16,26.99,1.07,8.73,1.89
324020,0.82,-3.40,24.41,1.13,8.73,1.83
324054,4.68,-1.91,24.48,1.13,8.73,1.75
324089,7.02,0.07,23.53,1.25,8.73,1.73
324124,9.93,-3.12,25.81,1.36,8.73,1.86
324159,12.05,-8.45,29.61,1.34,8.73,2.01
324194,12.63,-9.07,32.65,1.19,8.73,2.06
324229,12.35,-8.12,35.68,1.15,8.73,2.11
324264,11.32,-6.70,39.36,1.06,8.73,2.10
324299,8.84,-8.50,42.41,1.06,8.73,2.06
324334,4.00,-7.43,44.55,1.03,8.73,2.09
324369,0.36,-8.33,43.42,1.01,8.73,2.15
324404,-2.16,-7.98,40.30,1.04,8.73,2.14
324439,-4.44,-5.97,36.58,1.12,8.73,2.10
324474,-4.34,-4.76,32.58,1.09,8.73,2.09
324509,-4.31,-5.81,28.21,1.06,8.73,2.12
324544,-3.81,-5.35,25.30,1.09,8.73,2.18
324579,0.03,-6.12,23.87,1.03,8.73,2.14
324614,3.07,-1.67,23.40,1.02,8.73,2.02
324649,5.44,-3.46,22.16,1.09,8.73,1.96
324684,9.72,-3.60,25.04,1.24,8.73,1.94
324719,11.50,-3.98,29.15,1.21,8.73,1.98
324754,13.47,-5.45,31.72,1.09,8.73,2.03
324789,13.24,-8.51,34.62,1.08,8.73,2.06
324824,11.69,-9.12,38.63,1.03,8.73,2.06
324859,7.82,-8.64,41.64,1.01,8.73,2.04
324894,5.42,-8.34,42.77,1.01,8.73,1.98
324929,1.08,-7.03,41.73,1.04,8.73,1.99
324964,-2.23,-6.93,38.46,1.02,8.73,2.01
324999,-4.09,-6.19,36.39,1.07,8.73,2.04
325034,-4.74,-5.42,32.45,1.08,8.73,2.03
325074,-4.96,-6.01,27.47,1.02,8.73,2.01
325109,-3.30,-4.28,24.00,0.97,8.73,1.99
325144,-1.81,-2.87,21.51,0.97,8.73,1.95
325179,1.10,-4.40,20.63,1.01,8.73,1.84
325214,4.98,0.52,22.26,0.97,8.73,1.85
325249,8.22,-6.67,23.91,1.07,8.73,1.89
325284,11.22,-5.18,27.09,1.11,8.73,1.90
325319,12.76,-4.44,30.69,1.01,8.73,1.91
325354,13.68,-6.13,33.63,0.92,8.73,1.87
325389,12.01,-8.03,37.57,0.94,8.73,1.85
325424,8.99,-8.78,40.01,0.98,8.73,1.80
325459,5.65,-7.24,41.08,1.01,8.73,1.78
325494,1.69,-5.71,40.99,1.01,8.73,1.82
325529,-0.98,-8.29,37.35,1.04,8.73,1.85
325564,-3.24,-4.47,35.81,1.04,8.73,1.85
325599,-5.65,-5.96,32.99,1.03,8.73,1.92
325634,-7.64,-5.57,31.76,0.94,8.73,1.91
325669,-4.31,-5.07,27.59,0.95,8.73,1.89
325704,-1.40,-2.39,23.53,1.04,8.73,1.90
325739,0.94,-3.02,20.81,1.03,8.73,1.83
325774,5.13,-2.28,21.91,1.03,8.73,1.81
325809,7.34,-3.67,22.59,1.02,8.73,1.84
325844,9.42,-5.39,23.37,1.11,8.73,1.88
325879,11.35,-4.51,27.04,1.06,8.73,1.89
325914,13.30,-4.72,31.47,0.94,8.73,1.91
325949,13.23,-7.94,35.43,0.91,8.73,1.90
325984,10.98,-8.36,38.59,0.95,8.73,1.88
326019,8.27,-6.04,39.73,0.99,8.73,1.90
326054,3.58,-7.77,38.48,0.96,8.73,1.98
326089,0.44,-7.77,38.04,0.97,8.73,1.97
326124,-3.11,-4.98,39.50,0.83,8.73,1.98
326159,-5.83,-6.89,37.09,0.82,8.73,2.05
326194,-5.46,-5.37,31.68,0.78,8.73,1.95
326229,-9.21,-3.87,29.49,0.85,8.73,1.85
326264,-4.25,-0.50,25.14,0.82,8.73,1.85
326298,-0.86,-4.92,21.26,0.94,8.73,1.94
326333,3.00,-3.51,20.59,0.91,8.73,1.81
326369,5.56,-1.91,21.67,0.83,8.73,1.87
326403,7.28,-6.35,20.85,0.87,8.73,1.89
326438,10.29,-4.62,23.27,0.89,8.73,1.86
326473,12.77,-4.87,28.34,0.84,8.73,1.81
326508,14.06,-8.25,31.57,0.75,8.73,1.78
326543,12.55,-5.92,35.02,0.84,8.73,1.66
326578,10.11,-6.27,36.90,0.75,8.73,1.46
326613,6.07,-5.77,38.00,0.93,8.73,1.34
326648,3.48,-5.12,39.55,1.09,8.73,1.40
326683,-0.04,-7.23,40.11,1.17,8.73,1.62
326718,-3.90,-6.41,38.73,1.21,8.73,1.78
326753,-6.08,-5.37,36.60,1.09,8.73,1.89
326788,-6.76,-4.10,32.23,0.99,8.73,1.90
326823,-5.67,-3.65,27.66,0.97,8.73,1.94
326858,-2.73,-4.43,24.11,1.14,8.73,2.03
326893,-1.45,-3.97,21.14,1.09,8.73,2.13
326928,1.95,-4.58,20.19,1.01,8.73,2.21
326963,5.31,-3.88,20.37,0.90,8.73,2.23
326998,8.60,-5.99,21.80,1.06,8.73,2.13
327033,12.10,-1.90,25.63,1.07,8.73,2.01
327068,13.31,-5.32,28.56,1.23,8.73,2.06
327108,12.33,-6.96,31.54,1.20,8.73,2.13
327143,11.82,-6.37,33.63,1.17,8.73,2.16
327178,9.38,-7.32,36.41,1.01,8.73,2.12
327213,4.70,-8.78,37.47,0.97,8.73,2.03
327248,2.72,-7.66,39.39,0.95,8.73,1.88
327283,-0.68,-3.86,38.29,0.95,8.73,1.87
327319,-4.07,-8.33,35.64,1.18,8.73,1.81
327353,-6.18,-4.75,35.06,1.04,8.73,1.85
327388,-6.60,-6.61,30.35,1.02,8.73,1.96
327423,-6.51,-2.65,27.23,0.98,8.73,1.90
327458,-4.04,-4.41,22.98,0.95,8.73,1.96
327493,-0.85,-4.28,19.83,1.03,8.73,2.03
327528,3.30,-5.69,18.42,0.96,8.73,2.03
327563,8.14,-4.42,18.54,0.81,8.73,2.11
327598,9.32,-6.37,19.46,0.81,8.73,2.09
327633,10.03,-7.92,21.74,0.66,8.73,2.02
327668,11.00,-5.54,26.96,0.77,8.73,2.00
327704,12.69,-5.22,29.15,0.73,8.73,1.91
327738,11.65,-9.18,32.30,0.89,8.73,2.03
327773,9.73,-4.47,36.69,0.88,8.73,2.01
327808,6.44,-7.63,38.08,0.81,8.73,2.12
327843,3.07,-8.60,39.12,0.77,8.73,2.11
327878,-0.52,-5.82,39.34,0.68,8.73,2.07
327913,-3.63,-8.15,36.84,0.68,8.73,1.98
327948,-5.91,-3.41,34.66,0.72,8.73,1.86
327983,-6.62,-3.99,30.93,0.75,8.73,1.80
328018,-6.48,-5.02,27.12,0.89,8.73,1.79
328053,-3.63,-2.82,24.07,0.87,8.73,1.83
328088,-1.21,-3.82,20.76,0.94,8.73,1.85
328123,1.82,-3.97,18.86,0.97,8.73,1.84
328158,5.90,-2.57,19.42,0.96,8.73,1.86
328193,8.19,-5.50,20.34,0.99,8.73,1.90
328228,11.90,-5.01,23.83,1.05,8.73,1.90
328263,12.59,-4.84,25.05,0.97,8.73,1.93
328298,11.28,-7.02,29.16,0.99,8.73,1.97
328334,12.64,-6.09,32.53,0.97,8.73,2.02
328368,9.66,-8.53,35.59,0.96,8.73,2.08
328403,8.65,-6.16,38.28,0.92,8.73,2.14
328438,3.43,-7.73,39.48,0.82,8.73,2.17
328473,0.62,-7.95,39.29,0.76,8.73,2.07
328508,-3.84,-4.77,38.00,0.71,8.73,1.96
328543,-5.04,-6.64,34.19,0.66,8.73,1.88
328578,-5.66,-2.72,30.59,0.68,8.73,1.77
328613,-5.43,-2.77,27.38,0.71,8.73,1.67
328647,-5.17,-1.68,24.78,0.86,8.73,1.63
328682,-1.73,-1.62,21.86,0.97,8.73,1.60
328717,1.67,-1.49,20.14,1.07,8.73,1.62
328751,6.57,-2.52,19.57,1.17,8.73,1.63
328786,8.71,-1.68,19.73,1.32,8.73,1.70
328821,9.67,-2.76,21.80,1.44,8.73,1.81
328856,11.21,-5.20,25.63,1.57,8.73,1.98
328891,12.94,-5.75,29.16,1.59,8.73,2.23
328926,12.31,-9.43,33.02,1.58,8.73,2.52
328961,9.96,-10.68,36.20,1.33,8.73,2.69
328996,8.99,-11.17,38.46,1.08,8.73,2.74
329031,3.01,-10.62,39.80,0.82,8.73,2.60
329066,0.47,-8.22,40.81,0.70,8.73,2.47
329101,-3.23,-9.35,37.52,0.57,8.73,2.31
329141,-5.33,-6.32,33.99,0.49,8.73,2.11
329176,-6.73,-4.65,30.01,0.49,8.73,1.99
329211,-6.29,-4.78,27.35,0.66,8.73,1.85
329245,-3.77,-3.66,24.32,0.74,8.73,1.84
329280,-2.36,-3.19,21.12,0.90,8.73,1.84
329316,1.87,-2.53,20.08,1.05,8.73,1.65
329350,7.77,0.67,20.79,1.14,8.73,1.53
329385,10.65,-1.31,21.99,1.48,8.73,1.50
329420,12.09,-3.47,23.53,1.68,8.73,1.73
329455,12.87,-4.36,26.63,1.68,8.73,1.95
329490,12.51,-7.13,31.11,1.61,8.73,2.26
329525,11.87,-11.97,33.49,1.57,8.73,2.54
329560,8.65,-10.62,36.94,1.32,8.73,2.73
329595,5.70,-11.88,38.18,1.01,8.73,2.77
329630,1.65,-12.43,37.85,0.60,8.73,2.71
329665,-2.10,-11.93,38.18,0.38,8.73,2.58
329700,-5.13,-6.70,38.06,0.27,8.73,2.30
329735,-6.29,-4.18,34.70,0.19,8.73,1.97
329770,-7.68,-5.77,32.19,0.17,8.73,1.74
329805,-7.32,-3.45,28.69,0.27,8.73,1.48
329841,-6.04,2.25,26.08,0.46,8.73,1.20
329875,1.01,2.17,23.91,0.78,8.73,1.06
329910,5.61,1.94,22.76,1.18,8.73,0.91
329945,8.59,1.42,21.96,1.56,8.73,1.00
329980,11.84,-3.79,23.38,1.86,8.73,1.27
330015,12.44,-4.67,27.44,1.96,8.73,1.62
330050,12.72,-7.78,31.36,1.84,8.73,1.99
330085,12.56,-11.23,35.94,1.72,8.73,2.28
330120,10.53,-11.49,38.98,1.55,8.73,2.54
330155,6.55,-12.30,40.31,1.35,8.73,2.79
330190,2.88,-13.41,39.50,0.91,8.73,3.03
330225,-1.03,-11.15,41.74,0.54,8.73,3.02
330260,-4.59,-8.33,41.28,0.31,8.73,2.77
330295,-6.79,-5.64,37.02,0.34,8.73,2.46
330330,-3.76,-5.96,30.66,0.55,8.73,2.27
330365,-3.09,-5.70,27.58,0.52,8.73,2.15
330400,-0.93,-5.92,24.08,0.61,8.73,1.99
330435,1.67,-2.68,22.00,0.66,8.73,1.65
330470,4.92,-1.33,20.87,0.87,8.73,1.28
330505,7.44,2.60,21.10,1.28,8.73,1.02
330540,10.90,1.27,23.09,1.65,8.73,1.11
330575,13.24,-4.02,26.21,1.81,8.73,1.43
330610,14.37,-9.79,28.49,1.71,8.73,1.72
330645,13.47,-7.76,33.32,1.53,8.73,1.82
330680,10.34,-9.98,35.44,1.34,8.73,1.86
330715,7.43,-7.53,36.86,1.26,8.73,1.89
330750,4.39,-8.69,36.87,1.18,8.73,1.96
330785,-0.15,-10.66,35.46,1.23,8.73,2.05
330821,-2.35,-8.32,34.75,1.12,8.73,2.08
330855,-5.21,-7.07,31.57,0.98,8.73,2.17
330890,-6.09,-7.78,27.84,0.73,8.73,2.09
330925,-5.15,-6.53,24.81,0.61,8.73,1.98
330960,-5.83,-3.05,22.05,0.55,8.73,1.84
330995,-2.84,-2.97,18.51,0.59,8.73,1.66
331030,0.33,-1.70,16.60,0.63,8.73,1.46
331065,2.42,0.39,16.76,0.78,8.73,1.32
331100,5.76,0.80,16.56,0.97,8.73,1.22
331135,8.93,-1.15,17.29,1.19,8.73,1.21
331175,10.92,-3.44,20.58,1.27,8.73,1.33
331210,13.95,-5.49,23.04,1.24,8.73,1.43
331245,12.53,-5.95,27.42,1.15,8.73,1.47
331280,9.87,-6.28,30.36,1.10,8.73,1.46
331316,10.05,-5.20,32.25,1.09,8.73,1.38
331350,9.05,-4.57,34.45,1.13,8.73,1.33
331385,3.54,-9.47,34.00,1.18,8.73,1.40
331420,-0.95,-6.00,35.16,1.24,8.73,1.57
331455,-3.25,-7.33,33.60,1.23,8.73,1.69
331490,-5.05,-6.96,31.54,1.05,8.73,1.87
331525,-6.08,-5.66,28.30,0.90,8.73,1.88
331560,-5.51,-5.15,23.17,0.85,8.73,1.88
331595,-5.44,-2.41,20.71,0.79,8.73,1.83
331629,-2.15,-1.24,18.37,0.77,8.73,1.79
331664,-0.57,-2.45,16.05,0.81,8.73,1.76
331699,1.11,-4.57,14.62,0.77,8.73,1.77
331734,4.53,-2.74,15.46,0.74,8.73,1.78
331769,6.89,-3.78,15.67,0.70,8.73,1.78
331804,10.13,-5.18,16.89,0.62,8.73,1.79
331839,11.14,-5.43,20.11,0.56,8.73,1.70
331874,11.43,-4.36,24.31,0.55,8.73,1.59
331909,11.65,-5.46,27.55,0.56,8.73,1.51
331944,11.20,-3.98,31.36,0.61,8.73,1.42
331979,8.15,-6.66,33.98,0.76,8.73,1.39
332014,4.90,-6.33,35.74,0.83,8.73,1.45
332049,1.89,-6.09,36.48,0.96,8.73,1.58
332084,-1.08,-6.57,34.81,0.93,8.73,1.70
332119,-4.11,-4.59,33.35,0.94,8.73,1.68
332154,-5.84,-4.24,29.82,0.90,8.73,1.67
332189,-6.63,-3.74,27.08,0.87,8.73,1.62
332224,-6.44,-3.37,23.61,0.85,8.73,1.60
332259,-5.68,0.02,21.74,0.83,8.73,1.55
332294,-5.13,0.45,19.23,0.91,8.73,1.49
332329,1.52,-0.53,17.36,0.98,8.73,1.44
332365,6.25,0.46,17.23,1.06,8.73,1.34
332399,7.66,-1.59,16.14,1.22,8.73,1.40
332434,9.94,-1.65,18.30,1.19,8.73,1.55
332469,11.41,-4.33,20.63,1.27,8.73,1.68
332504,12.72,-5.29,23.14,1.16,8.73,1.75
332540,12.28,-5.18,27.26,1.17,8.73,1.82
332574,10.20,-7.23,30.81,1.10,8.73,1.89
332609,9.08,-6.50,34.04,1.03,8.73,1.85
332644,5.97,-7.03,35.63,1.04,8.73,1.88
332679,1.99,-7.36,34.30,0.94,8.73,1.93
332714,-0.50,-5.07,33.45,0.95,8.73,1.85
332749,-3.49,-5.84,32.00,0.97,8.73,1.84
332784,-6.26,-4.78,30.62,1.00,8.73,1.83
332820,-6.96,-4.72,27.41,1.16,8.73,1.91
332854,-8.28,-6.19,24.02,1.23,8.73,2.04
332889,-7.20,-5.62,21.59,1.15,8.73,2.13
332924,-3.60,-7.03,18.22,1.07,8.73,2.25
332959,-0.53,-6.78,16.65,0.88,8.73,2.21
332994,2.80,-2.41,17.19,0.81,8.73,2.11
333029,5.73,-4.05,16.64,0.80,8.73,1.98
333064,8.79,-1.42,18.61,0.86,8.73,1.85
333099,11.03,-5.41,20.99,0.97,8.73,1.85
333134,12.26,-5.72,24.22,0.89,8.73,1.83
333169,12.59,-5.64,27.02,0.81,8.73,1.79
333209,11.42,-6.13,31.13,0.80,8.73,1.69
333244,8.48,-6.55,32.81,0.77,8.73,1.61
333279,6.34,-4.88,34.14,0.78,8.73,1.55
333315,2.51,-5.55,35.27,0.88,8.73,1.53
333349,-0.01,-5.33,34.92,0.91,8.73,1.57
333384,-2.83,-5.25,33.91,0.95,8.73,1.61
333419,-5.65,-5.46,31.84,0.89,8.73,1.71
333454,-5.87,-3.87,28.53,0.76,8.73,1.69
333489,-6.63,-3.32,25.46,0.80,8.73,1.66
333524,-4.30,-0.94,21.92,0.83,8.73,1.64
333559,-2.80,-1.09,18.90,0.95,8.73,1.61
333594,-1.60,-0.98,17.50,0.97,8.73,1.58
333630,-0.10,0.02,18.28,1.12,8.73,1.56
333664,5.86,-0.66,18.70,1.24,8.73,1.54
333699,10.36,-0.21,19.36,1.44,8.73,1.59
333734,12.83,-5.36,21.80,1.45,8.73,1.74
333769,12.28,-3.78,25.01,1.32,8.73,1.85
333804,11.63,-6.91,26.69,1.22,8.73,1.91
333839,12.11,-6.62,29.86,1.12,8.73,1.90
333874,9.87,-6.88,32.70,1.05,8.73,1.79
333909,4.97,-6.96,34.29,0.97,8.73,1.70
333944,2.21,-6.77,35.06,0.97,8.73,1.61
333979,0.58,-6.27,36.29,1.06,8.73,1.64
334014,-2.55,-6.64,33.39,1.04,8.73,1.75
334049,-6.04,-3.88,31.56,1.05,8.73,1.78
334084,-7.38,-4.78,28.32,1.02,8.73,1.81
334119,-6.56,-4.12,25.12,1.03,8.73,1.82
334154,-6.04,-5.49,21.14,1.07,8.73,1.87
334189,-3.31,-5.32,18.43,1.02,8.73,1.99
334224,-0.84,-3.39,16.75,1.00,8.73,2.00
334259,1.61,-4.05,15.32,0.96,8.73,1.98
334294,6.56,-2.51,17.37,0.98,8.73,1.86
334329,9.22,-3.33,18.22,1.07,8.73,1.79
334364,12.02,-3.96,18.51,1.14,8.73,1.79
334398,12.35,-2.60,22.63,1.23,8.73,1.85
334433,12.16,-4.67,25.94,1.28,8.73,1.92
334468,11.71,-8.09,28.07,1.23,8.73,2.04
334502,11.19,-7.10,30.32,1.08,8.73,2.03
334537,8.94,-6.93,32.92,1.00,8.73,1.99
334572,4.32,-7.93,34.31,0.91,8.73,2.01
334607,0.30,-7.14,33.84,0.78,8.73,2.03
334642,-1.91,-6.55,32.79,0.67,8.73,2.01
334677,-4.58,-4.33,31.99,0.61,8.73,1.92
334712,-4.64,-6.67,27.42,0.57,8.73,1.81
334747,-6.66,-2.09,25.84,0.58,8.73,1.75
334782,-6.60,-3.07,22.35,0.64,8.73,1.70
334817,-5.64,-0.90,19.75,0.71,8.73,1.66
334852,-4.32,-2.06,16.69,0.79,8.73,1.65
334887,-1.00,-2.92,14.87,0.81,8.73,1.66
334922,3.11,-2.84,14.95,0.83,8.73,1.69
334957,6.41,-3.54,15.13,0.83,8.73,1.71
334992,8.87,-4.90,16.52,0.79,8.73,1.77
335027,10.45,-4.42,19.37,0.72,8.73,1.75
335062,11.04,-4.29,21.10,0.74,8.73,1.71
335097,12.07,-5.91,23.24,0.81,8.73,1.72
335132,12.52,-5.04,26.47,0.84,8.73,1.75
335167,11.58,-6.32,29.67,0.90,8.73,1.84
335202,6.98,-6.94,31.79,0.90,8.73,1.95
335242,4.52,-7.18,33.28,0.78,8.73,1.98
335277,1.20,-7.63,34.87,0.73,8.73,1.89
335313,-2.90,-4.99,34.09,0.79,8.73,1.76
335347,-4.54,-4.35,30.03,0.88,8.73,1.68
335382,-5.36,-4.42,26.65,0.97,8.73,1.65
335417,-6.56,-4.37,24.88,0.91,8.73,1.63
335452,-6.43,-1.97,23.06,0.91,8.73,1.54
335487,-5.06,-2.53,19.96,0.94,8.73,1.45
335522,-2.30,0.18,17.42,1.02,8.73,1.34
335557,0.98,0.38,15.57,1.20,8.73,1.31
335592,5.23,0.57,15.28,1.36,8.73,1.27
335627,8.07,-0.17,16.41,1.62,8.73,1.29
335662,9.98,-0.91,18.23,1.86,8.73,1.43
335697,11.34,-1.89,20.14,2.04,8.73,1.70
335732,11.93,-6.26,22.72,2.06,8.73,2.08
335767,11.12,-8.55,26.77,1.90,8.73,2.41
335802,10.57,-11.46,31.81,1.65,8.73,2.73
335837,8.02,-13.18,34.37,1.31,8.73,2.91
335872,5.47,-11.35,36.58,1.03,8.73,3.04
335907,1.28,-11.22,38.16,0.57,8.73,2.78
335942,-1.92,-7.66,39.00,0.30,8.73,2.65
335977,-4.99,-8.38,35.38,0.29,8.73,2.33
336012,-5.91,-5.14,32.37,0.24,8.73,2.05
336047,-5.87,-2.77,27.83,0.25,8.73,1.75
336082,-5.57,-2.53,24.71,0.28,8.73,1.48
336117,-3.62,2.67,22.37,0.48,8.73,1.18
336152,0.12,2.93,20.53,0.70,8.73,0.87
336187,-0.19,2.45,18.86,1.06,8.73,0.85
336222,6.86,-2.88,19.21,1.43,8.73,1.02
336257,10.72,-2.44,21.92,1.61,8.73,1.32
336292,12.92,-4.78,25.32,1.58,8.73,1.62
336327,13.86,-6.42,29.69,1.55,8.73,1.88
336362,11.38,-9.73,32.39,1.65,8.73,2.06
336397,11.48,-8.61,34.40,1.51,8.73,2.33
336432,8.48,-12.58,36.38,1.37,8.73,2.63
336467,4.89,-12.13,38.47,1.04,8.73,2.80
336502,0.34,-11.90,38.81,0.77,8.73,2.72
336537,-2.52,-8.62,37.75,0.52,8.73,2.57
336573,-5.22,-7.57,33.93,0.38,8.73,2.32
336607,-6.22,-6.33,29.79,0.25,8.73,2.11
336642,-4.57,-4.25,26.57,0.21,8.73,1.79
336677,-5.76,-2.59,23.94,0.18,8.73,1.47
336712,-2.65,1.85,23.52,0.35,8.73,1.12
336747,0.01,1.83,21.26,0.63,8.73,0.91
336782,4.01,1.98,20.65,0.97,8.73,0.86
336817,8.94,-0.34,20.34,1.31,8.73,0.99
336852,12.55,-5.02,22.53,1.58,8.73,1.23
336887,12.39,-4.41,24.73,1.60,8.73,1.42
336922,12.32,-5.71,27.96,1.64,8.73,1.75
336957,12.34,-8.54,31.55,1.73,8.73,1.93
336992,10.50,-10.21,34.46,1.56,8.73,2.16
337027,7.41,-9.58,36.47,1.46,8.73,2.37
337062,3.54,-10.21,36.93,1.17,8.73,2.40
337097,0.17,-10.15,37.21,1.04,8.73,2.42
337132,-3.90,-10.34,36.20,1.01,8.73,2.37
337167,-6.01,-8.03,33.92,0.71,8.73,2.33
337202,-4.89,-6.26,27.98,0.56,8.73,2.25
337237,-3.82,-6.45,23.26,0.47,8.73,1.98
337278,-6.72,-1.20,22.18,0.43,8.73,1.82
337313,-1.56,-5.25,18.85,0.46,8.73,1.69
337347,0.33,-2.80,16.99,0.48,8.73,1.68
337382,3.18,-5.67,16.29,0.50,8.73,1.64
337417,7.62,-4.28,16.64,0.42,8.73,1.64
337452,10.50,-4.51,18.21,0.46,8.73,1.57
337487,11.69,-5.10,22.23,0.51,8.73,1.43
337522,12.23,-4.90,24.53,0.53,8.73,1.32
337557,13.38,-5.07,25.83,0.62,8.73,1.21
337591,12.71,-3.64,28.65,0.77,8.73,1.22
337626,9.95,-4.30,30.36,0.88,8.73,1.23
337661,6.93,-5.81,32.75,0.99,8.73,1.40
337696,2.66,-7.41,34.10,1.01,8.73,1.59
337731,-0.68,-6.93,33.90,0.98,8.73,1.76
337766,-3.16,-5.95,32.42,0.92,8.73,1.82
337801,-4.86,-5.44,29.70,0.80,8.73,1.83
337837,-6.13,-4.63,25.80,0.68,8.73,1.80
337871,-6.09,-4.10,21.87,0.65,8.73,1.76
337906,-5.44,-2.59,19.17,0.65,8.73,1.74
337941,-4.52,-1.44,17.39,0.72,8.73,1.79
337976,-5.53,-0.52,17.68,0.79,8.73,1.84
338011,-1.22,-2.10,14.87,0.79,8.73,1.86
338046,1.64,-2.83,14.47,0.86,8.73,1.80
338081,6.31,-2.26,16.55,0.87,8.73,1.70
338116,11.83,-1.65,18.90,1.01,8.73,1.65
338151,13.55,-4.45,20.71,1.04,8.73,1.70
338186,13.51,-5.58,23.24,0.98,8.73,1.70
338221,12.59,-5.55,25.99,0.93,8.73,1.68
338256,10.67,-6.58,28.30,0.94,8.73,1.66
338291,8.45,-7.41,30.20,0.91,8.73,1.64
338327,6.05,-6.27,32.44,0.90,8.73,1.67
338361,3.54,-5.08,33.87,0.97,8.73,1.61
338396,0.21,-6.11,33.83,1.05,8.73,1.64
338430,-3.04,-5.20,32.27,1.12,8.73,1.66
338465,-4.87,-5.27,29.46,1.13,8.73,1.71
338500,-5.92,-4.74,26.62,1.10,8.73,1.76
338535,-6.67,-5.52,23.59,1.09,8.73,1.83
338570,-5.78,-5.09,20.83,1.05,8.73,1.90
338605,-4.77,-3.57,17.96,0.97,8.73,1.96
338640,-2.86,-2.23,16.39,1.00,8.73,2.00
338675,0.75,-5.41,15.30,0.92,8.73,2.02
338709,3.87,-4.33,15.13,0.83,8.73,1.96
338744,7.10,-3.18,15.52,0.88,8.73,1.85
338779,10.34,-5.77,17.73,0.85,8.73,1.84
338815,12.02,-4.61,21.85,0.82,8.73,1.82
338849,12.72,-4.26,24.28,0.79,8.73,1.80
338884,12.75,-5.02,26.82,0.82,8.73,1.84
338919,11.81,-5.25,30.37,0.84,8.73,1.89
338953,8.26,-5.51,32.99,0.90,8.73,1.95
338988,4.95,-7.64,33.50,0.90,8.73,2.04
339023,2.38,-7.46,34.27,0.76,8.73,2.04
339058,-0.62,-4.88,34.52,0.71,8.73,1.96
339093,-4.17,-6.14,32.98,0.69,8.73,1.87
339128,-6.11,-3.98,32.08,0.66,8.73,1.81
339163,-6.44,-3.78,28.15,0.75,8.73,1.79
339198,-6.54,-3.06,24.65,0.78,8.73,1.77
339233,-5.36,-1.69,21.63,0.89,8.73,1.76
339268,-4.31,-3.43,18.32,0.91,8.73,1.79
339308,0.18,-4.25,16.43,0.94,8.73,1.74
339343,3.85,-1.87,16.62,0.92,8.73,1.74
339378,7.65,-3.47,17.20,0.98,8.73,1.72
339413,9.85,-2.72,19.16,0.96,8.73,1.73
339448,11.15,-4.55,21.46,1.00,8.73,1.73
339483,12.55,-6.02,24.04,0.95,8.73,1.73
339518,12.75,-6.24,27.39,0.92,8.73,1.71
339553,11.05,-6.63,30.60,0.87,8.73,1.63
339588,8.59,-6.00,33.26,0.83,8.73,1.56
339623,6.64,-5.17,35.09,0.92,8.73,1.57
339657,3.32,-6.91,36.19,1.02,8.73,1.63
339692,-0.18,-5.92,36.43,1.05,8.73,1.74
339727,-3.69,-6.22,35.52,1.06,8.73,1.82
339762,-5.28,-5.60,32.86,0.98,8.73,1.87
339797,-5.15,-4.88,28.10,0.94,8.73,1.87
339832,-5.42,-4.39,23.79,0.85,8.73,1.88
339867,-4.88,-2.71,21.04,0.92,8.73,1.88
339902,-3.34,-4.30,18.22,0.88,8.73,1.94
339937,-0.54,-2.25,16.67,0.91,8.73,1.94
339972,2.32,-3.73,15.81,0.83,8.73,2.00
340007,6.69,-5.35,16.69,0.86,8.73,1.95
340042,9.04,-5.62,19.11,0.77,8.73,1.95
340077,9.87,-2.55,21.82,0.84,8.73,1.93
340112,11.93,-5.65,26.30,0.93,8.73,1.87
340147,12.56,-5.96,29.06,0.83,8.73,1.90
340182,11.78,-6.37,31.88,0.83,8.73,1.90
340217,9.29,-5.37,34.79,0.80,8.73,1.90
340252,5.57,-7.70,36.44,0.84,8.73,2.03
340287,2.89,-6.14,36.97,0.71,8.73,2.07
340323,-1.00,-8.63,36.04,0.58,8.73,2.11
340358,-3.37,-4.26,35.20,0.39,8.73,2.02
340392,-5.64,-3.49,31.93,0.43,8.73,1.93
340427,-6.28,-2.19,29.00,0.48,8.73,1.79
340462,-7.21,-4.37,25.32,0.67,8.73,1.79
340497,-5.11,-1.02,22.91,0.77,8.73,1.87
340532,-3.44,-6.50,18.58,0.88,8.73,2.02
340567,0.79,-4.02,17.81,0.83,8.73,2.05
340602,4.85,-5.17,18.27,0.75,8.73,2.05
340637,8.19,-4.71,19.47,0.75,8.73,1.94
340672,10.81,-5.47,20.95,0.69,8.73,1.90
340707,11.76,-4.46,24.21,0.78,8.73,1.83
340742,12.54,-5.44,27.96,0.75,8.73,1.78
340777,11.79,-6.95,31.53,0.89,8.73,1.77
340812,11.67,-5.26,34.82,0.88,8.73,1.74
340846,7.99,-7.80,37.22,0.99,8.73,1.72
340880,5.05,-6.03,38.50,0.99,8.73,1.69
340914,1.19,-6.98,37.69,1.12,8.73,1.70
340949,-1.67,-5.67,35.38,1.14,8.73,1.69
340984,-4.19,-4.32,32.69,1.23,8.73,1.72
341019,-6.21,-6.24,30.36,1.12,8.73,1.76
341054,-6.30,-6.00,26.96,1.06,8.73,1.85
341089,-5.39,-3.24,23.90,1.06,8.73,1.81
341124,-1.85,-4.27,20.31,0.97,8.73,1.84
341159,-0.15,-1.38,19.17,1.04,8.73,1.78
341194,1.75,-2.56,18.63,1.02,8.73,1.82
341229,3.49,-3.74,18.17,1.15,8.73,1.77
341264,8.14,-1.42,20.48,1.13,8.73,1.82
341299,11.02,-4.37,23.77,1.31,8.73,1.93
341339,12.83,-6.39,27.64,1.26,8.73,2.03
341375,13.13,-3.92,31.17,1.21,8.73,2.07
341409,11.88,-9.24,33.48,1.04,8.73,2.13
341444,7.92,-7.35,36.22,1.03,8.73,2.04
341479,4.68,-8.20,37.04,0.95,8.73,1.99
341514,2.51,-6.95,37.78,0.96,8.73,1.94
341549,-1.15,-4.81,37.06,0.95,8.73,1.92
341584,-3.87,-7.46,34.71,1.04,8.73,1.90
341619,-6.17,-4.74,33.22,1.00,8.73,1.91
341654,-5.58,-6.10,29.01,0.96,8.73,1.97
341689,-4.89,-3.14,25.80,0.98,8.73,1.93
341724,-4.39,-4.91,22.32,0.91,8.73,1.98
341759,-3.67,-3.80,20.50,0.97,8.73,1.97
341794,-0.03,-4.59,19.85,0.94,8.73,1.93
341829,4.72,-2.39,20.62,0.87,8.73,1.96
341864,9.24,-6.88,21.47,0.85,8.73,2.00
341899,11.62,-5.96,25.50,0.81,8.73,1.96
341933,12.83,-8.32,28.18,0.67,8.73,1.89
341968,12.78,-3.97,32.54,0.70,8.73,1.73
342002,12.39,-6.19,34.94,0.69,8.73,1.68
342037,9.38,-6.37,37.13,0.78,8.73,1.69
342072,5.70,-7.19,38.65,0.86,8.73,1.84
342107,3.11,-6.36,40.00,0.81,8.73,2.04
342142,-0.45,-8.57,38.70,0.59,8.73,2.16
342176,-3.05,-4.00,37.40,0.38,8.73,2.12
342211,-5.29,-3.58,34.31,0.38,8.73,1.99
342246,-6.33,-2.30,31.31,0.53,8.73,1.81
342281,-5.85,-1.93,28.15,0.65,8.73,1.83
342316,-4.62,-3.01,24.75,0.87,8.73,1.92
342350,-3.99,-3.24,21.45,0.94,8.73,2.03
342385,1.50,-5.55,20.17,0.94,8.73,2.02
342420,7.41,-3.51,22.29,0.86,8.73,2.06
342455,10.38,-6.28,22.82,0.81,8.73,2.03
342490,12.29,-5.43,25.64,0.95,8.73,1.97
342525,12.73,-3.67,29.18,0.98,8.73,1.92
342560,12.45,-6.57,31.87,0.99,8.73,1.96
342595,11.43,-7.80,35.26,1.09,8.73,2.04
342630,9.28,-7.18,38.77,1.03,8.73,1.98
342665,5.88,-7.93,40.42,0.99,8.73,1.98
342700,1.60,-9.33,39.90,1.04,8.73,2.00
342735,-0.71,-5.37,39.09,1.09,8.73,1.96
342770,-4.09,-6.61,37.38,1.16,8.73,1.96
342805,-5.26,-6.54,34.03,1.21,8.73,2.05
342841,-5.80,-6.56,30.82,1.22,8.73,2.12
342875,-6.34,-5.57,27.64,1.15,8.73,2.23
342910,-3.96,-6.25,24.15,1.08,8.73,2.34
342945,0.04,-6.80,21.75,0.97,8.73,2.34
342980,4.76,-6.27,22.19,0.88,8.73,2.33
343016,7.70,-6.31,22.32,0.91,8.73,2.19
343050,10.90,-2.85,23.65,0.95,8.73,2.09
343085,12.10,-3.94,28.21,0.98,8.73,2.11
343119,13.29,-6.76,31.19,1.17,8.73,2.16
343153,13.08,-6.88,34.78,1.22,8.73,2.26
343187,11.64,-8.61,36.57,1.11,8.73,2.36
343222,7.64,-8.50,39.13,1.03,8.73,2.37
343257,4.91,-7.49,40.80,0.94,8.73,2.20
343292,0.74,-7.64,41.27,0.83,8.73,2.16
343328,-2.93,-8.41,40.28,0.84,8.73,2.11
343367,-5.22,-5.08,38.12,0.90,8.73,2.04
343402,-6.27,-5.87,34.44,0.93,8.73,2.07
343436,-4.00,-4.33,29.44,0.98,8.73,2.03
343471,-2.45,-3.90,25.11,0.96,8.73,2.06
343506,0.57,-3.56,22.06,0.94,8.73,2.05
343541,2.58,-4.28,21.04,0.87,8.73,2.05
343576,5.05,-5.93,20.62,0.84,8.73,2.03
343611,8.74,-4.82,22.89,0.86,8.73,2.00
343647,10.69,-4.78,25.06,0.73,8.73,1.95
343681,12.03,-6.73,28.43,0.76,8.73,1.92
343715,12.75,-3.78,33.10,0.81,8.73,1.81
343749,11.98,-7.22,36.00,0.83,8.73,1.74
343784,9.66,-6.87,38.93,0.88,8.73,1.72
343820,5.78,-8.64,40.54,0.98,8.73,1.77
343854,2.80,-5.62,41.77,1.12,8.73,1.77
343889,-0.73,-6.59,41.39,1.13,8.73,1.87
343923,-3.61,-6.33,38.66,1.22,8.73,1.94
343958,-4.95,-6.79,34.51,1.26,8.73,2.01
343993,-5.92,-5.78,31.21,1.19,8.73,2.02
344027,-6.93,-4.12,27.81,1.09,8.73,2.05
344062,-4.61,-4.33,24.57,1.06,8.73,2.11
344097,-0.29,-4.03,21.78,1.04,8.73,2.06
344132,4.24,-3.87,22.15,1.04,8.73,2.07
344167,7.38,-3.32,23.36,1.08,8.73,1.96
344202,10.93,-4.93,26.00,1.03,8.73,1.99
344237,12.37,-6.51,27.86,1.02,8.73,2.03
344272,13.39,-8.49,30.51,1.04,8.73,2.05
344307,12.88,-6.70,34.89,1.02,8.73,2.07
344342,11.63,-6.37,38.25,0.93,8.73,2.03
344376,8.92,-7.64,40.37,0.92,8.73,2.03
344411,4.15,-7.85,41.25,0.93,8.73,1.98
344446,0.65,-5.45,40.99,0.95,8.73,1.94
344481,-2.47,-7.27,39.38,1.03,8.73,1.90
344516,-5.57,-6.47,37.11,1.05,8.73,1.96
344551,-5.74,-5.01,32.75,1.03,8.73,1.96
344586,-5.48,-3.79,29.14,1.02,8.73,1.94
344621,-2.51,-2.70,25.42,0.96,8.73,1.98
344655,-2.39,-3.55,22.64,1.00,8.73,2.00
344689,0.90,-4.72,22.18,1.00,8.73,2.01
344724,6.17,-5.08,23.29,0.85,8.73,2.13
344759,7.58,-6.35,22.35,0.76,8.73,2.14
344794,10.69,-7.01,24.60,0.73,8.73,2.09
344830,12.84,-7.07,29.04,0.80,8.73,2.01
344864,13.93,-5.53,34.09,0.91,8.73,1.96
344899,11.82,-5.12,37.72,0.99,8.73,1.99
344933,10.08,-7.60,39.78,0.93,8.73,1.95
344967,5.62,-7.85,40.76,0.92,8.73,1.88
345002,2.81,-5.05,41.42,1.01,8.73,1.79
345037,-0.46,-6.93,40.53,1.05,8.73,1.78
345072,-3.52,-6.86,38.48,1.13,8.73,1.85
345107,-5.78,-6.90,34.99,1.09,8.73,1.89
345142,-6.52,-5.09,31.94,1.02,8.73,1.88
345177,-5.36,-2.78,28.08,0.93,8.73,1.83
345212,-2.51,-3.71,24.28,0.96,8.73,1.86
345247,1.86,-3.32,21.79,1.00,8.73,1.89
345282,4.11,-5.06,22.28,1.05,8.73,2.03
345318,6.85,-5.02,22.48,1.01,8.73,2.09
345352,9.64,-3.64,23.79,0.92,8.73,2.12
345392,11.77,-7.44,28.23,0.97,8.73,2.15
345427,13.51,-6.02,33.36,1.01,8.73,2.13
345461,13.27,-7.02,36.57,1.00,8.73,2.20
345497,10.92,-7.96,38.98,0.95,8.73,2.24
345531,7.10,-8.21,40.47,0.87,8.73,2.25
345566,4.08,-8.64,41.70,0.81,8.73,2.19
345601,0.42,-6.33,41.67,0.81,8.73,2.08
345637,-2.72,-7.40,39.28,0.95,8.73,1.95
345671,-4.87,-5.79,36.02,1.01,8.73,1.89
345706,-7.00,-4.13,32.02,1.03,8.73,1.89
345741,-4.13,-4.73,27.83,0.94,8.73,1.86
345776,-1.82,-4.14,23.99,0.95,8.73,1.85
345811,-0.11,-2.11,22.16,0.99,8.73,1.71
345846,1.79,-1.87,21.91,1.08,8.73,1.68
345881,5.85,-3.16,21.59,1.19,8.73,1.73
345916,7.72,-2.81,23.21,1.21,8.73,1.82
345951,11.13,-7.08,25.64,1.16,8.73,1.95
345986,13.01,-7.65,31.35,1.10,8.73,2.02
346021,12.40,-7.87,34.88,1.10,8.73,2.04
346056,12.04,-8.22,37.38,1.05,8.73,2.06
346091,9.11,-8.67,39.68,1.00,8.73,2.07
346126,4.57,-9.54,40.26,0.93,8.73,2.16
346161,2.14,-8.51,40.88,0.86,8.73,2.21
346196,-2.20,-6.91,39.06,0.74,8.73,2.19
346231,-4.78,-6.33,37.38,0.62,8.73,2.10
346266,-5.85,-5.22,34.94,0.57,8.73,1.98
346301,-7.10,-4.18,31.30,0.55,8.73,1.78
346336,-5.37,-0.69,27.95,0.60,8.73,1.64
346372,-2.71,-0.83,24.88,0.73,8.73,1.56
346406,2.72,-1.53,23.06,0.89,8.73,1.58
346441,7.35,-3.45,23.99,0.94,8.73,1.70
346476,9.46,-4.80,23.11,0.95,8.73,1.77
346511,11.92,-5.79,25.06,1.00,8.73,1.81
346546,11.72,-5.38,30.00,1.01,8.73,1.80
346581,13.65,-5.14,32.82,0.99,8.73,1.79
346616,12.29,-8.11,36.52,1.03,8.73,1.82
346651,9.06,-7.51,38.70,1.05,8.73,1.81
346686,6.47,-6.79,39.33,1.04,8.73,1.84
346721,2.04,-8.53,40.29,1.03,8.73,1.90
346756,-0.75,-8.74,41.11,1.08,8.73,1.98
346791,-3.70,-8.34,39.13,1.06,8.73,2.03
346826,-6.52,-5.69,36.10,1.01,8.73,2.06
346861,-7.04,-5.52,31.90,0.93,8.73,2.03
346896,-5.53,-3.83,28.17,0.84,8.73,2.00
346932,-4.38,-4.75,24.93,0.87,8.73,2.00
346966,-0.77,-4.53,23.65,0.92,8.73,2.01
347001,2.32,-3.92,23.35,0.97,8.73,1.99
347036,6.28,-3.94,22.84,1.01,8.73,1.98
347072,10.61,-3.06,25.55,1.07,8.73,1.95
347106,13.67,-3.62,29.13,1.16,8.73,1.95
347141,14.12,-6.26,32.63,1.30,8.73,2.05
347176,12.14,-6.84,34.97,1.36,8.73,2.20
347211,11.65,-7.60,37.31,1.25,8.73,2.28
347246,8.26,-8.87,39.63,1.14,8.73,2.33
347281,3.94,-9.19,40.61,1.05,8.73,2.28
347315,0.92,-7.02,41.17,0.99,8.73,2.19
347350,-3.13,-6.63,39.55,1.02,8.73,2.14
347385,-4.79,-7.80,36.49,1.20,8.73,2.14
347425,-5.31,-7.68,31.84,1.21,8.73,2.21
347460,-6.43,-8.74,27.55,1.16,8.73,2.32
347495,-4.96,-6.73,24.81,1.11,8.73,2.40
347530,-2.49,-5.94,22.56,0.94,8.73,2.39
347565,2.38,-6.11,20.84,0.81,8.73,2.37
347600,6.72,-4.08,21.42,0.68,8.73,2.29
347635,9.76,-6.65,23.08,0.80,8.73,2.16
347669,11.88,-4.19,25.74,0.80,8.73,2.02
347704,12.35,-5.04,28.41,0.84,8.73,1.97
347739,12.25,-7.16,31.86,0.89,8.73,1.94
347774,11.15,-5.74,36.34,0.96,8.73,1.94
347809,8.73,-7.11,39.51,0.98,8.73,1.86
347844,6.09,-6.42,41.28,1.01,8.73,1.83
347879,1.87,-7.71,40.84,1.12,8.73,1.80
347914,-1.24,-6.33,39.48,1.23,8.73,1.79
347949,-3.27,-5.67,36.86,1.23,8.73,1.85
347984,-4.46,-6.13,32.59,1.25,8.73,1.96
348019,-5.57,-7.06,29.11,1.22,8.73,1.97
348054,-6.99,-4.58,27.36,1.15,8.73,1.98
348089,-3.73,-3.24,24.33,1.05,8.73,1.98
348124,0.39,-3.39,21.92,1.02,8.73,1.88
348159,3.97,-3.04,21.38,1.07,8.73,1.85
348194,5.88,-2.13,21.20,1.14,8.73,1.84
348229,11.49,-3.19,24.44,1.04,8.73,1.90
348264,13.29,-6.87,27.33,1.03,8.73,1.99
348299,13.58,-7.93,29.77,1.00,8.73,1.97
348335,12.27,-5.58,35.05,0.94,8.73,1.91
348369,11.52,-7.14,37.57,0.90,8.73,1.85
348404,8.82,-7.06,40.26,0.97,8.73,1.77
348439,4.25,-6.64,41.18,1.03,8.73,1.72
348474,1.32,-5.05,41.35,1.12,8.73,1.76
348509,-2.46,-7.48,39.15,1.25,8.73,1.81
348544,-5.09,-4.59,36.62,1.33,8.73,1.85
348579,-6.20,-5.04,33.04,1.40,8.73,1.96
348614,-5.08,-5.73,28.19,1.40,8.73,2.09
348649,-4.37,-7.67,24.25,1.37,8.73,2.23
348684,-3.39,-5.53,22.09,1.25,8.73,2.28
348719,1.90,-5.55,21.37,1.18,8.73,2.18
348754,5.11,-1.87,21.16,1.10,8.73,2.09
348789,7.05,-3.38,21.34,1.10,8.73,2.06
348825,9.72,-5.41,23.67,1.28,8.73,2.10
348859,12.90,-4.06,28.71,1.29,8.73,2.12
348894,13.36,-6.75,33.27,1.15,8.73,2.23
348929,12.63,-10.47,35.71,1.12,8.73,2.29
348964,9.36,-7.59,38.56,1.00,8.73,2.23
348999,6.03,-7.58,39.17,0.90,8.73,2.16
349034,2.38,-7.92,39.72,0.83,8.73,2.14
349069,-0.81,-8.34,39.96,0.83,8.73,2.04
349104,-3.41,-4.02,38.45,0.82,8.73,1.98
349139,-5.08,-6.64,34.69,0.85,8.73,1.98
349174,-5.56,-4.92,30.34,0.88,8.73,1.93
349209,-5.12,-2.11,27.13,0.83,8.73,1.88
349244,-3.86,-3.06,23.59,0.85,8.73,1.84
349279,-0.57,-2.64,21.78,0.94,8.73,1.79
349315,2.59,-2.52,21.43,1.04,8.73,1.73
349349,5.18,-0.56,21.66,1.08,8.73,1.73
349384,9.74,-4.64,23.02,1.13,8.73,1.75
349419,11.44,-5.38,24.49,1.23,8.73,1.80
349459,13.24,-7.23,28.39,1.09,8.73,1.82
349494,12.66,-7.61,32.71,1.11,8.73,1.81
349529,11.09,-5.35,36.74,1.05,8.73,1.73
349564,8.55,-8.35,38.47,1.07,8.73,1.67
349599,5.45,-7.81,39.65,1.14,8.73,1.65
349634,1.64,-5.56,39.65,1.29,8.73,1.60
349669,-2.02,-6.83,37.81,1.36,8.73,1.67
349704,-4.44,-4.86,36.41,1.53,8.73,1.79
349739,-4.26,-7.90,32.41,1.38,8.73,1.95
349774,-3.63,-7.11,28.30,1.23,8.73,2.07
349809,-6.34,-6.51,25.19,1.13,8.73,2.07
349844,-4.00,-4.77,22.77,1.03,8.73,2.02
349879,-0.45,-3.85,21.00,0.96,8.73,2.02
349914,3.94,-5.42,21.43,0.85,8.73,2.18
349949,7.65,-8.55,21.49,0.86,8.73,2.17
349984,11.75,-4.58,23.46,0.68,8.73,2.11
350019,12.55,-5.04,26.48,0.61,8.73,2.04
350054,13.34,-6.90,28.83,0.63,8.73,1.96
350089,13.01,-4.79,33.26,0.81,8.73,1.94
350124,11.24,-5.63,36.90,0.83,8.73,1.98
350159,8.60,-7.59,38.82,0.89,8.73,2.00
350194,4.26,-5.66,40.14,0.90,8.73,1.91
350229,0.90,-6.00,39.99,0.90,8.73,1.88
350264,-2.86,-6.63,37.96,1.08,8.73,1.76
350299,-4.41,-4.43,35.63,1.18,8.73,1.76
350334,-5.47,-4.67,32.33,1.16,8.73,1.81
350369,-5.24,-5.27,28.40,1.13,8.73,1.84
350404,-6.19,-3.48,26.11,1.12,8.73,1.75
350439,-2.25,-1.10,23.21,1.07,8.73,1.68
350474,3.29,-0.35,21.71,1.14,8.73,1.59
350509,7.57,-1.70,21.19,1.30,8.73,1.54
350544,8.82,0.37,21.57,1.31,8.73,1.62
350579,10.43,-6.28,22.25,1.34,8.73,1.78
350613,11.60,-6.84,25.60,1.18,8.73,1.87
350648,13.10,-7.15,29.24,0.94,8.73,1.85
350683,12.41,-9.61,32.59,0.84,8.73,1.82
350718,11.72,-5.33,36.16,0.80,8.73,1.66
350753,8.07,-6.70,37.49,0.80,8.73,1.67
350788,4.57,-9.51,39.28,0.96,8.73,1.79
350823,0.57,-4.28,41.03,1.00,8.73,1.81
350858,-2.40,-7.40,38.76,0.94,8.73,1.88
350893,-4.99,-5.70,36.28,1.01,8.73,1.90
350928,-5.48,-4.10,32.30,0.99,8.73,1.85
350963,-5.40,-3.69,28.78,0.92,8.73,1.84
350998,-4.61,-4.49,24.58,0.97,8.73,1.79
351033,-2.04,-1.74,22.34,1.00,8.73,1.71
351068,3.13,-0.26,21.32,1.08,8.73,1.64
351103,7.05,-1.65,21.75,1.14,8.73,1.70
351139,9.32,-3.07,21.27,1.34,8.73,1.69
351173,11.16,-3.06,23.44,1.38,8.73,1.74
351208,12.06,-7.04,25.54,1.34,8.73,1.91
351243,12.10,-5.64,29.88,1.26,8.73,1.95
351278,13.10,-7.98,32.65,1.19,8.73,2.10
351314,9.72,-7.95,36.01,1.14,8.73,2.14
351348,9.06,-7.76,38.46,1.03,8.73,2.23
351383,3.03,-8.89,39.39,0.90,8.73,2.28
351418,0.69,-9.24,39.32,0.81,8.73,2.26
351453,-3.11,-6.24,37.32,0.73,8.73,2.19
351493,-6.07,-4.99,35.05,0.83,8.73,2.09
351528,-5.84,-4.66,31.01,0.86,8.73,2.07
351563,-6.33,-6.57,26.67,0.92,8.73,2.12
351598,-6.06,-6.14,23.89,0.96,8.73,2.16
351633,-1.70,-5.15,21.47,0.86,8.73,2.20
351668,3.25,-5.16,20.34,0.77,8.73,2.15
351703,7.85,-4.77,19.58,0.79,8.73,2.03
351738,9.49,-2.35,21.01,0.74,8.73,1.96
351773,11.00,-6.51,22.52,0.81,8.73,1.92
351808,9.77,-4.19,25.38,0.88,8.73,1.82
351843,12.44,-7.36,29.63,0.84,8.73,1.86
351878,12.35,-6.69,34.49,0.98,8.73,1.82
351913,10.96,-6.23,37.57,0.98,8.73,1.80
351948,5.97,-6.70,38.78,0.98,8.73,1.65
351983,3.96,-6.22,39.05,1.10,8.73,1.45
352018,-0.31,-5.25,38.24,1.23,8.73,1.48
352053,-2.77,-6.62,36.67,1.40,8.73,1.59
352088,-6.68,-6.73,35.10,1.16,8.73,1.75
352123,-6.61,-5.06,31.52,1.08,8.73,1.83
352158,-6.12,-4.78,27.75,0.97,8.73,1.71
352193,-4.88,0.93,24.88,0.85,8.73,1.58
352228,-2.87,-1.74,21.04,0.97,8.73,1.46
352263,3.12,-0.93,20.15,1.11,8.73,1.43
352298,7.36,-0.21,21.32,1.18,8.73,1.53
352334,7.29,-4.60,19.74,1.30,8.73,1.68
352368,10.42,-3.20,23.16,1.26,8.73,1.80
352403,12.45,-5.79,26.11,1.23,8.73,1.95
352438,12.69,-8.09,29.38,1.21,8.73,2.04
352473,12.21,-6.90,34.25,1.18,8.73,2.10
352508,10.91,-6.50,37.60,1.07,8.73,2.13
352543,5.93,-7.79,38.86,0.98,8.73,2.20
352578,3.95,-7.81,37.98,0.91,8.73,2.15
352613,-0.43,-7.19,37.98,0.88,8.73,2.11
352649,-3.57,-6.03,37.82,0.96,8.73,2.02
352683,-6.12,-5.48,35.00,1.01,8.73,1.98
352718,-5.73,-6.54,30.66,1.10,8.73,2.02
352753,-6.39,-5.30,26.05,1.09,8.73,1.99
352788,-6.17,-4.93,24.55,0.94,8.73,1.98
352823,-0.17,-5.36,21.23,0.93,8.73,1.90
352858,2.16,-2.08,18.38,0.92,8.73,1.83
352893,3.76,-0.40,19.52,0.96,8.73,1.73
352928,5.93,-4.85,19.79,1.05,8.73,1.78
352963,9.59,-1.70,25.10,1.08,8.73,1.82
352998,12.47,-6.72,26.87,1.08,8.73,1.88
353033,13.15,-8.43,30.84,1.08,8.73,1.85
353068,13.91,-5.23,34.56,1.04,8.73,1.87
353103,10.00,-6.71,36.61,0.97,8.73,1.80
353138,7.75,-6.75,37.73,1.00,8.73,1.78
353173,2.95,-7.24,38.21,0.97,8.73,1.82
353208,0.79,-7.76,37.81,0.98,8.73,1.93
353243,-3.00,-5.48,35.66,0.86,8.73,1.99
353278,-6.92,-8.49,34.35,0.74,8.73,2.04
353314,-8.08,-2.85,33.51,0.57,8.73,1.90
353348,-2.76,-3.62,27.28,0.63,8.73,1.93
353383,-1.48,-3.09,22.21,0.81,8.73,1.89
353418,-3.56,-1.82,20.12,0.84,8.73,1.89
353453,0.52,-2.85,19.40,0.84,8.73,1.89
353488,3.52,-5.66,18.85,0.85,8.73,1.94
353528,7.07,-6.78,19.15,0.82,8.73,1.90
353563,10.34,-1.51,23.61,0.89,8.73,1.83
353598,12.48,-7.03,26.63,0.89,8.73,1.81
353633,13.01,-5.44,30.01,0.94,8.73,1.74
353668,12.58,-6.05,32.72,0.93,8.73,1.77
353703,10.13,-7.46,35.72,1.01,8.73,1.75
353738,7.77,-5.19,38.09,1.02,8.73,1.70
353773,3.71,-6.53,39.15,1.08,8.73,1.72
353808,0.19,-5.39,39.91,1.17,8.73,1.64
353843,-2.35,-6.60,36.41,1.20,8.73,1.77
353878,-4.63,-2.91,34.09,1.40,8.73,1.83
353913,-6.79,-7.09,30.82,1.38,8.73,1.99
353948,-6.35,-8.35,27.04,1.33,8.73,2.11
353983,-5.80,-4.64,24.64,1.21,8.73,2.19
354018,-4.03,-5.91,20.99,1.04,8.73,2.18
354053,-0.07,-3.91,19.32,0.98,8.73,2.16
354088,4.91,-5.51,19.85,0.95,8.73,2.16
354123,8.77,-3.88,20.85,0.75,8.73,2.18
354158,11.03,-7.09,22.05,0.79,8.73,2.15
354193,12.57,-5.11,26.03,0.65,8.73,2.04
354228,12.24,-5.96,28.49,0.72,8.73,1.97
354263,12.11,-4.37,31.64,0.76,8.73,1.91
354298,11.98,-8.09,34.14,0.84,8.73,1.98
354333,7.74,-6.32,37.54,0.91,8.73,1.96
354368,5.44,-5.78,39.04,0.89,8.73,1.92
354403,0.39,-8.64,38.69,0.87,8.73,1.87
354438,-1.74,-3.34,37.41,0.97,8.73,1.79
354473,-4.35,-6.20,34.16,1.02,8.73,1.79
354508,-5.70,-4.63,32.15,1.09,8.73,1.80
354543,-5.13,-4.31,28.72,1.04,8.73,1.86
354578,-3.77,-4.78,25.12,1.07,8.73,1.86
354613,-1.79,-1.71,21.43,1.03,8.73,1.85
354648,1.58,-3.40,18.84,1.04,8.73,1.81
354683,3.90,-4.97,18.18,1.05,8.73,1.91
354718,7.77,-1.86,18.93,1.00,8.73,1.95
354753,9.96,-9.08,19.55,0.86,8.73,2.05
354788,11.58,-4.02,23.44,0.77,8.73,1.99
354823,12.33,-5.76,25.76,0.82,8.73,1.98
354858,12.43,-4.99,29.16,0.84,8.73,1.95
354893,10.90,-8.31,31.89,0.88,8.73,2.03
354928,9.13,-6.36,35.53,0.81,8.73,2.08
354963,5.15,-7.48,36.83,0.77,8.73,2.17
354998,2.77,-7.92,38.97,0.74,8.73,2.18
355033,-0.74,-7.14,36.06,0.66,8.73,2.13
355068,-5.53,-6.08,37.00,0.68,8.73,2.02
355103,-5.78,-4.58,32.68,0.52,8.73,1.89
355138,-5.37,-3.17,28.59,0.78,8.73,1.87
355173,-5.18,-2.20,25.18,0.85,8.73,1.80
355208,-5.02,-3.60,21.86,0.96,8.73,1.81
355243,-1.91,-2.88,19.97,0.91,8.73,1.77
355278,2.20,-4.03,18.16,0.95,8.73,1.73
355314,6.27,-2.32,18.46,0.98,8.73,1.68
355348,9.25,-3.50,18.46,0.98,8.73,1.70
355383,10.25,-0.44,21.16,1.14,8.73,1.71
355418,12.65,-5.53,23.03,1.18,8.73,1.79
355453,12.78,-5.25,26.98,1.23,8.73,1.85
355487,11.49,-9.20,30.09,1.13,8.73,1.98
355522,11.48,-6.15,33.99,1.05,8.73,1.92
355562,8.40,-5.36,36.64,0.96,8.73,1.88
355597,3.79,-7.90,37.47,0.96,8.73,1.88
355632,0.19,-7.54,39.12,0.94,8.73,1.93
355667,-2.62,-7.83,35.49,0.81,8.73,1.99
355702,-4.19,-4.74,32.18,0.80,8.73,1.95
355738,-5.75,-5.43,29.33,0.70,8.73,1.90
355772,-5.94,-4.52,25.43,0.74,8.73,1.81
355807,-5.05,-2.27,22.85,0.75,8.73,1.84
355842,-2.89,-4.54,18.93,0.88,8.73,1.86
355877,0.35,-2.25,17.83,0.82,8.73,1.78
355912,3.22,-3.73,17.95,0.86,8.73,1.88
355946,7.09,-4.50,18.99,0.85,8.73,1.86
355981,7.59,-3.34,18.31,0.89,8.73,1.77
356016,8.82,-4.58,19.25,0.92,8.73,1.75
356051,11.15,-4.89,26.23,1.01,8.73,1.77
356086,13.30,-4.56,30.77,1.08,8.73,1.79
356121,11.25,-8.00,33.91,1.08,8.73,1.77
356156,9.44,-4.72,36.20,1.02,8.73,1.67
356191,4.98,-7.64,36.08,1.07,8.73,1.55
356226,2.20,-5.38,36.42,1.18,8.73,1.44
356261,-0.08,-6.64,35.26,1.31,8.73,1.54
356296,-3.60,-7.21,34.23,1.24,8.73,1.71
356332,-6.79,-6.35,32.56,1.21,8.73,1.82
356367,-7.26,-5.09,28.62,1.04,8.73,1.84
356401,-6.45,-4.95,24.25,0.89,8.73,1.80
356437,-4.90,1.17,21.63,0.82,8.73,1.69
356471,-2.49,-4.76,17.75,0.86,8.73,1.64
356506,-4.67,1.12,18.30,0.92,8.73,1.67
356541,5.22,-4.23,19.75,0.87,8.73,1.79
356576,7.82,-2.88,18.50,0.87,8.73,1.80
356611,8.60,-4.54,19.15,0.83,8.73,1.88
356646,11.03,-5.78,24.80,0.72,8.73,1.83
356681,13.39,-6.29,28.48,0.76,8.73,1.81
356716,13.27,-3.44,32.39,0.85,8.73,1.74
356751,11.76,-8.44,34.14,0.89,8.73,1.80
356786,8.29,-4.92,36.72,0.98,8.73,1.76
356821,5.01,-7.21,36.91,0.99,8.73,1.76
356856,1.55,-5.54,37.00,1.07,8.73,1.68
356891,-1.87,-6.40,35.14,1.13,8.73,1.70
356925,-3.76,-4.41,33.45,1.22,8.73,1.73
356960,-6.00,-5.63,29.93,1.31,8.73,1.81
356995,-6.81,-4.61,27.18,1.26,8.73,1.91
357030,-7.45,-6.53,25.45,1.23,8.73,2.04
357065,-4.92,-3.71,21.60,1.14,8.73,2.14
357100,-1.62,-4.92,18.16,1.02,8.73,2.16
357135,2.65,-6.16,18.32,0.96,8.73,2.19
357170,7.28,-3.22,19.03,0.87,8.73,2.11
357205,9.15,-6.38,18.65,0.93,8.73,2.04
357240,10.66,-1.77,21.41,0.86,8.73,1.99
357275,11.90,-5.63,24.97,1.00,8.73,2.03
357310,11.61,-5.14,29.13,0.93,8.73,2.00
357346,12.88,-8.15,32.19,0.93,8.73,2.07
357381,10.11,-6.32,37.21,0.92,8.73,2.05
357415,7.53,-6.97,37.15,0.81,8.73,2.06
357450,3.14,-6.01,35.44,0.79,8.73,2.08
357485,-0.01,-7.00,35.48,0.76,8.73,2.03
357520,-3.10,-4.20,36.52,0.79,8.73,1.91
357555,-5.06,-5.69,32.06,0.82,8.73,1.88
357595,-6.34,-3.43,28.96,0.87,8.73,1.84
357630,-8.16,-3.15,26.52,0.94,8.73,1.83
357665,-7.00,-3.90,22.58,0.93,8.73,1.90
357700,-3.76,-2.94,19.83,1.05,8.73,1.95
357735,-1.19,-2.51,17.70,0.95,8.73,1.91
357770,2.65,-4.86,17.35,0.92,8.73,1.94
357805,8.38,-2.07,20.33,0.92,8.73,1.86
357840,11.67,-7.58,20.97,0.93,8.73,1.87
357875,12.96,-3.75,24.85,0.79,8.73,1.83
357910,12.45,-6.12,27.69,0.80,8.73,1.84
357945,11.77,-6.43,30.68,0.82,8.73,1.81
357980,10.00,-6.99,33.32,0.83,8.73,1.72
358015,8.25,-6.33,35.15,0.78,8.73,1.57
358050,5.47,-5.06,36.68,0.84,8.73,1.45
358085,1.55,-3.43,36.83,0.90,8.73,1.44
358120,-1.86,-7.23,35.04,1.06,8.73,1.51
358155,-3.71,-3.71,32.56,1.00,8.73,1.60
358190,-5.68,-4.63,29.84,1.12,8.73,1.64
358225,-6.43,-4.63,27.40,1.00,8.73,1.66
358260,-7.53,-2.61,25.23,1.04,8.73,1.63
358295,-4.92,-2.92,22.42,0.97,8.73,1.60
358331,-1.63,0.18,20.13,1.11,8.73,1.54
358365,1.88,-1.25,19.09,1.17,8.73,1.51
358400,6.49,-2.18,18.01,1.31,8.73,1.59
358435,8.84,-1.49,18.31,1.35,8.73,1.70
358470,11.33,-5.63,20.64,1.48,8.73,1.87
358505,12.53,-4.87,23.46,1.39,8.73,1.98
358539,12.34,-6.25,26.96,1.41,8.73,2.13
358574,11.97,-7.84,29.89,1.33,8.73,2.33
358609,10.56,-9.01,33.09,1.21,8.73,2.43
358643,6.34,-9.23,36.21,0.99,8.73,2.44
358678,4.94,-9.65,38.19,0.76,8.73,2.38
358713,0.03,-7.20,38.71,0.65,8.73,2.26
358748,-2.14,-7.13,35.70,0.65,8.73,2.06
358783,-4.81,-5.93,32.92,0.49,8.73,1.96
358818,-5.83,-4.83,28.56,0.42,8.73,1.84
358853,-4.71,-4.27,25.65,0.35,8.73,1.66
358888,-4.42,-0.67,22.64,0.37,8.73,1.45
358923,-3.29,0.15,20.16,0.60,8.73,1.38
358958,-0.54,0.25,18.39,0.77,8.73,1.34
358993,2.82,-2.43,18.03,0.94,8.73,1.43
359028,5.67,-1.99,16.27,0.96,8.73,1.53
359062,7.86,-2.77,17.51,1.10,8.73,1.60
359097,11.39,-5.87,21.52,1.13,8.73,1.69
359131,13.44,-4.77,23.90,1.13,8.73,1.78
359165,11.94,-6.33,27.82,1.16,8.73,1.93
359200,11.24,-7.26,30.92,1.28,8.73,2.06
359235,8.77,-9.89,34.58,1.13,8.73,2.18
359270,6.31,-9.50,37.78,1.00,8.73,2.35
359305,2.99,-9.75,38.87,0.86,8.73,2.38
359340,-0.98,-8.03,38.21,0.75,8.73,2.33
359376,-2.86,-6.72,35.04,0.74,8.73,2.19
359410,-4.68,-7.98,30.90,0.65,8.73,2.06
359445,-4.67,-5.81,27.72,0.64,8.73,1.93
359480,-4.03,-3.15,24.21,0.67,8.73,1.84
359515,-1.79,-3.38,20.11,0.73,8.73,1.75
359550,-2.05,-3.22,16.06,0.75,8.73,1.58
359586,0.06,-0.58,16.03,0.84,8.73,1.48
359625,6.43,-1.64,17.39,0.90,8.73,1.51
359660,8.59,-2.58,16.87,1.09,8.73,1.50
359695,10.13,-1.44,17.14,1.23,8.73,1.52
359730,11.13,-3.45,21.69,1.40,8.73,1.68
359765,10.86,-6.07,26.09,1.49,8.73,1.87
359800,12.54,-8.24,27.58,1.44,8.73,2.07
359836,10.17,-8.40,31.62,1.25,8.73,2.21
359870,6.85,-9.47,34.91,1.13,8.73,2.29
359905,5.66,-9.58,36.92,0.96,8.73,2.30
359940,0.65,-10.42,37.55,0.78,8.73,2.32
359975,-1.49,-6.92,35.38,0.60,8.73,2.28
360010,-5.16,-8.70,31.62,0.37,8.73,2.14
360045,-6.17,-4.28,30.62,0.30,8.73,1.95
360079,-5.50,-4.22,26.47,0.31,8.73,1.74
360113,-5.83,-1.40,23.80,0.38,8.73,1.53
360148,-5.38,0.12,21.09,0.59,8.73,1.47
360183,-2.62,-0.06,18.61,0.77,8.73,1.38
360218,2.81,-1.25,17.83,0.96,8.73,1.30
360253,5.81,-3.29,16.97,1.04,8.73,1.40
360288,7.49,-3.15,17.23,1.23,8.73,1.49
360324,11.53,-3.81,21.32,1.27,8.73,1.60
360359,12.77,-4.66,23.89,1.44,8.73,1.71
360393,12.05,-7.13,27.29,1.45,8.73,1.91
360428,11.87,-5.73,29.04,1.54,8.73,2.14
360463,9.52,-9.54,31.75,1.39,8.73,2.41
360498,6.91,-9.22,34.91,1.19,8.73,2.58
360533,4.52,-10.50,37.04,0.89,8.73,2.53
360568,-0.28,-10.80,38.11,0.74,8.73,2.37
360603,-3.17,-6.15,36.98,0.67,8.73,2.19
360638,-4.48,-9.27,31.75,0.52,8.73,2.09
360673,-3.70,-5.94,27.68,0.30,8.73,1.90
360708,-7.42,-5.35,24.63,0.16,8.73,1.62
360743,-5.45,0.23,22.82,0.20,8.73,1.36
360778,-3.66,-0.40,20.03,0.37,8.73,1.19
360813,-1.67,0.95,18.70,0.70,8.73,1.22
360849,2.00,-0.38,17.82,0.91,8.73,1.30
360883,6.96,-4.50,17.86,1.02,8.73,1.48
360918,10.51,-2.70,19.63,1.19,8.73,1.55
360953,11.26,-6.23,22.72,1.32,8.73,1.65
360988,13.01,-4.91,25.75,1.48,8.73,1.75
361023,12.33,-7.32,28.41,1.60,8.73,2.04
361058,11.36,-7.44,32.08,1.63,8.73,2.37
361093,8.49,-13.85,32.89,1.41,8.73,2.65
361128,4.53,-11.56,35.01,1.15,8.73,2.72
361163,2.30,-10.24,35.22,0.81,8.73,2.63
361197,-1.35,-7.44,34.96,0.77,8.73,2.38
361232,-4.09,-9.82,32.41,0.65,8.73,2.20
361267,-6.60,-6.94,29.71,0.49,8.73,2.02
361302,-7.20,-7.72,27.08,0.36,8.73,1.94
361337,-5.65,-3.00,24.41,0.24,8.73,1.68
361372,-8.08,-0.94,21.83,0.33,8.73,1.42
361407,-5.45,-1.22,19.62,0.40,8.73,1.22
361442,1.44,-0.88,19.17,0.69,8.73,1.17
361477,4.95,-0.44,19.01,0.82,8.73,1.23
361512,6.84,-3.06,18.06,1.09,8.73,1.26
361547,10.68,0.64,19.94,1.30,8.73,1.31
361582,13.02,-4.32,23.24,1.57,8.73,1.50
361617,14.46,-5.30,27.27,1.70,8.73,1.68
361657,12.33,-6.43,30.06,1.85,8.73,2.10
361692,10.26,-9.82,32.40,1.62,8.73,2.40
361727,7.25,-9.78,35.32,1.47,8.73,2.61
361762,4.39,-10.84,36.28,1.20,8.73,2.59
361796,0.03,-11.59,37.61,1.09,8.73,2.51
361831,-3.20,-8.59,37.04,0.92,8.73,2.47
361866,-4.94,-8.57,31.16,0.94,8.73,2.37
361901,-5.78,-7.82,27.55,0.83,8.73,2.28
361936,-3.66,-7.70,23.68,0.75,8.73,2.25
361971,-3.64,-5.20,20.85,0.66,8.73,2.18
362006,-3.44,-5.89,18.17,0.64,8.73,2.14
362041,-2.02,-4.23,16.42,0.56,8.73,2.04
362076,0.28,-4.11,16.61,0.53,8.73,2.00
362111,6.14,-4.51,17.09,0.51,8.73,1.85
362146,9.15,-2.82,18.28,0.61,8.73,1.66
362181,11.12,-2.68,21.68,0.79,8.73,1.51
362216,12.88,-4.59,24.15,0.90,8.73,1.50
362250,13.92,-6.49,26.64,0.89,8.73,1.45
362285,12.96,-4.67,29.22,0.84,8.73,1.36
362319,9.76,-5.66,31.14,0.87,8.73,1.23
362354,6.82,-6.03,33.09,0.96,8.73,1.06
362388,3.98,-4.70,34.49,1.11,8.73,1.02
362423,1.00,-5.92,35.21,1.32,8.73,1.26
362458,-2.24,-7.30,33.52,1.37,8.73,1.48
362493,-4.53,-6.73,31.81,1.29,8.73,1.68
362527,-5.74,-5.66,29.28,1.26,8.73,1.82
362562,-6.20,-5.55,25.61,1.18,8.73,1.95
362597,-6.63,-4.11,22.96,1.07,8.73,1.94
362632,-6.46,-6.36,20.02,0.99,8.73,2.00
362667,-4.53,-2.92,18.72,0.85,8.73,2.01
362702,0.64,-4.82,16.93,0.85,8.73,2.03
362737,5.66,-5.05,16.91,0.72,8.73,2.02
362772,8.68,-6.11,16.80,0.61,8.73,1.99
362807,11.03,-7.53,19.13,0.39,8.73,1.98
362842,11.82,-5.79,22.24,0.22,8.73,1.82
362877,12.99,-5.89,25.18,0.20,8.73,1.63
362912,12.18,-3.27,29.36,0.31,8.73,1.49
362947,10.16,-5.48,32.75,0.56,8.73,1.49
362981,8.62,-4.74,35.18,0.70,8.73,1.56
363016,4.16,-4.93,37.42,0.84,8.73,1.73
363051,2.23,-4.91,36.47,0.79,8.73,1.76
363086,-1.19,-4.24,35.08,0.83,8.73,1.68
363121,-5.47,-3.90,34.93,0.83,8.73,1.68
363156,-6.50,-3.25,32.68,1.07,8.73,1.72
363191,-5.73,-4.07,27.33,1.09,8.73,1.78
363226,-5.18,-4.17,23.31,1.15,8.73,1.88
363261,-3.37,-4.84,20.24,1.14,8.73,2.02
363296,-1.97,-4.12,18.41,1.11,8.73,2.14
363331,0.34,-5.62,16.65,1.01,8.73,2.21
363366,5.20,-5.15,16.97,0.93,8.73,2.15
363401,7.85,-5.97,17.75,0.83,8.73,2.17
363436,11.94,-5.03,20.71,0.80,8.73,2.10
363471,13.07,-7.56,23.21,0.68,8.73,2.07
363506,12.39,-5.64,26.15,0.59,8.73,1.97
363541,12.28,-5.88,29.03,0.67,8.73,1.96
363576,10.89,-6.76,31.70,0.66,8.73,2.00
363611,7.32,-5.40,34.66,0.70,8.73,2.02
363646,4.60,-7.83,36.46,0.68,8.73,2.09
363686,0.80,-7.89,37.57,0.55,8.73,2.05
363721,-2.46,-2.17,37.42,0.48,8.73,1.90
363756,-4.85,-5.24,33.08,0.54,8.73,1.77
363791,-4.92,-1.95,28.55,0.57,8.73,1.62
363826,-4.84,-1.44,24.75,0.59,8.73,1.49
363861,-5.36,0.28,22.72,0.67,8.73,1.31
363896,-3.68,-0.82,20.15,0.77,8.73,1.23
363931,-1.55,1.51,18.51,0.93,8.73,1.11
363966,0.51,0.99,17.77,1.13,8.73,1.15
364001,5.60,1.05,18.98,1.31,8.73,1.22
364036,9.99,-3.03,18.64,1.52,8.73,1.37
364071,11.99,-2.27,22.12,1.56,8.73,1.56
364106,12.66,-5.90,24.26,1.49,8.73,1.77
364141,13.23,-6.87,26.02,1.36,8.73,1.86
364176,10.67,-8.41,29.93,1.27,8.73,1.94
364211,9.32,-6.48,33.27,1.17,8.73,1.98
364246,8.15,-7.09,34.98,1.13,8.73,2.05
364281,2.24,-8.14,36.47,1.03,8.73,2.11
364316,0.62,-7.88,37.54,0.95,8.73,2.16
364351,-3.06,-6.38,35.19,0.85,8.73,2.14
364386,-5.28,-5.56,32.38,0.94,8.73,2.07
364421,-5.67,-6.07,29.14,0.96,8.73,2.04
364456,-6.72,-4.79,25.13,0.95,8.73,2.03
364491,-6.22,-5.91,21.68,1.00,8.73,2.12
364526,-3.31,-5.69,18.68,0.99,8.73,2.19
364561,-1.27,-6.22,16.51,0.90,8.73,2.19
364596,0.65,-4.00,16.56,0.81,8.73,2.09
364631,5.48,-3.95,17.48,0.82,8.73,1.99
364666,8.42,-1.41,20.23,0.88,8.73,1.83
364701,10.88,-5.75,21.98,1.02,8.73,1.81
364736,13.00,-4.84,25.24,1.03,8.73,1.83
364770,12.00,-6.66,28.51,1.05,8.73,1.84
364805,11.85,-5.87,31.79,0.96,8.73,1.86
364840,9.00,-8.94,34.10,0.99,8.73,1.84
364875,6.29,-6.25,36.45,0.90,8.73,1.74
364910,3.40,-7.40,36.50,0.94,8.73,1.77
364945,-0.34,-5.83,35.87,0.94,8.73,1.78
364980,-3.56,-6.54,34.25,0.93,8.73,1.78
365015,-5.49,-6.07,32.34,0.88,8.73,1.81
365050,-6.55,-4.15,29.25,0.84,8.73,1.80
365085,-6.58,-3.94,25.39,0.86,8.73,1.79
365120,-5.78,-1.58,22.36,0.89,8.73,1.71
365155,-3.21,-3.78,18.85,0.91,8.73,1.68
365190,1.48,-0.91,17.79,0.98,8.73,1.58
365225,4.14,-1.99,17.26,1.05,8.73,1.59
365260,6.11,-2.46,17.42,1.19,8.73,1.57
365295,9.68,-5.18,18.81,1.18,8.73,1.71
365331,11.59,-3.62,22.98,1.20,8.73,1.79
365365,11.82,-6.30,25.66,1.15,8.73,1.87
365400,13.08,-5.88,28.18,1.10,8.73,1.89
365435,10.63,-7.82,31.28,1.09,8.73,1.97
365470,8.24,-7.31,33.58,0.96,8.73,1.97
365505,6.71,-7.79,35.12,0.90,8.73,2.01
365540,1.75,-8.45,35.34,0.82,8.73,2.00
365575,-0.49,-6.51,35.74,0.83,8.73,1.88
365610,-2.71,-5.79,33.96,0.86,8.73,1.77
365645,-5.24,-4.23,30.61,0.94,8.73,1.71
365680,-5.93,-4.79,27.60,0.98,8.73,1.71
365720,-6.26,-4.20,23.51,0.96,8.73,1.65
365755,-6.08,-2.83,21.33,0.92,8.73,1.63
365790,-4.46,-1.99,18.94,0.99,8.73,1.55
365825,0.62,-1.79,18.25,1.08,8.73,1.56
365860,5.69,-1.68,17.51,1.17,8.73,1.59
365895,6.29,-0.29,17.68,1.35,8.73,1.60
365930,9.68,-1.89,19.06,1.53,8.73,1.71
365965,11.72,-4.02,22.72,1.63,8.73,1.91
366000,11.43,-5.71,27.31,1.67,8.73,2.18
366035,12.92,-8.56,29.66,1.60,8.73,2.47
366070,9.86,-11.24,33.36,1.35,8.73,2.64
366105,7.94,-12.55,36.01,1.13,8.73,2.75
366140,4.14,-10.97,36.87,0.83,8.73,2.87
366175,1.37,-11.71,38.16,0.54,8.73,2.76
366210,-2.68,-8.91,38.02,0.35,8.73,2.57
366245,-4.49,-4.97,36.08,0.08,8.73,2.33
366280,-6.11,-4.53,31.73,0.09,8.73,2.04
366316,-5.15,-1.99,28.46,0.16,8.73,1.73
366350,-6.36,-1.16,25.90,0.55,8.73,1.61
366385,-3.36,-2.78,22.88,0.71,8.73,1.59
366420,0.21,-1.37,20.44,0.89,8.73,1.40
366455,3.49,0.73,21.59,1.09,8.73,1.31
366490,6.87,-1.88,22.51,1.46,8.73,1.33
366525,10.26,1.24,24.53,1.82,8.73,1.47
366560,13.18,-2.94,28.27,2.04,8.73,1.78
366595,13.69,-7.90,32.14,2.04,8.73,2.17
366630,12.43,-13.28,34.43,1.82,8.73,2.47
366665,10.45,-11.44,37.20,1.53,8.73,2.57
366700,6.87,-11.01,39.23,1.22,8.73,2.61
366735,3.17,-11.94,39.66,0.95,8.73,2.59
366770,-1.12,-8.95,41.34,0.81,8.73,2.51
366805,-4.40,-12.00,38.70,0.58,8.73,2.42
366840,-5.39,-7.86,35.00,0.41,8.73,2.30
366875,-5.82,-6.25,30.66,0.33,8.73,2.04
366910,-5.51,-3.04,28.18,0.37,8.73,1.77
366945,-4.37,-0.73,25.28,0.51,8.73,1.60
366980,0.55,-1.13,22.88,0.71,8.73,1.40
367015,3.69,-0.37,22.38,0.94,8.73,1.36
367050,6.80,-2.95,21.28,1.26,8.73,1.33
367085,11.38,-0.75,23.46,1.50,8.73,1.41
367120,13.32,-2.06,26.43,1.78,8.73,1.57
367155,13.40,-6.92,29.97,1.85,8.73,1.84
367190,12.35,-8.21,32.75,1.93,8.73,2.13
367225,10.90,-10.27,35.32,1.78,8.73,2.46
367260,8.02,-12.75,37.62,1.53,8.73,2.56
367295,4.22,-11.77,39.63,1.25,8.73,2.57
367331,0.77,-11.50,40.62,1.09,8.73,2.48
367365,-2.16,-7.98,39.20,1.06,8.73,2.36
367400,-4.12,-9.20,35.98,1.00,8.73,2.32
367435,-3.92,-8.04,29.85,0.84,8.73,2.26
367470,-3.75,-6.61,26.20,0.66,8.73,2.07
367505,-3.58,-3.47,23.81,0.58,8.73,1.88
367540,-3.37,-2.92,22.05,0.58,8.73,1.67
367575,-1.22,-1.46,20.24,0.73,8.73,1.64
367610,1.64,-2.71,21.10,0.91,8.73,1.61
367645,6.14,-1.25,22.82,1.02,8.73,1.66
367680,11.82,-4.12,26.62,1.21,8.73,1.71
367715,13.39,-5.94,30.54,1.28,8.73,1.82
367755,13.36,-6.70,34.46,1.39,8.73,1.92
367790,11.86,-8.85,38.23,1.35,8.73,2.04
367825,8.32,-10.42,40.16,1.25,8.73,2.05
367860,5.77,-9.99,42.04,1.17,8.73,2.00
367895,1.98,-9.57,41.70,1.26,8.73,2.00
367930,-2.61,-8.22,40.56,1.29,8.73,2.03
367965,-5.14,-8.35,37.34,1.17,8.73,2.10
368000,-4.46,-8.20,33.60,0.97,8.73,2.12
368035,-5.86,-6.07,30.31,0.87,8.73,2.02
368070,-4.04,-4.81,28.13,0.83,8.73,1.90
368105,-3.65,-2.30,25.52,0.85,8.73,1.69
368140,0.65,-0.20,23.92,0.99,8.73,1.54
368175,6.05,-1.18,24.91,1.15,8.73,1.50
368210,9.22,-2.24,26.38,1.36,8.73,1.59
368245,12.16,-4.00,27.91,1.47,8.73,1.75
368280,14.41,-6.52,32.10,1.47,8.73,1.94
368315,14.12,-8.15,36.22,1.38,8.73,2.06
368350,12.04,-8.60,39.40,1.24,8.73,2.12
368385,7.94,-9.88,42.32,1.21,8.73,2.17
368420,4.84,-10.47,43.52,1.13,8.73,2.25
368455,1.20,-10.45,43.22,1.07,8.73,2.29
368490,-1.97,-9.96,41.15,0.92,8.73,2.33
368525,-4.83,-7.05,39.84,0.69,8.73,2.29
368560,-6.00,-5.41,35.39,0.60,8.73,2.16
368595,-5.08,-3.95,31.55,0.57,8.73,2.00
368630,-3.98,-3.11,28.37,0.71,8.73,1.94
368665,-2.70,-2.56,26.44,0.81,8.73,1.93
368700,2.96,-6.60,25.94,0.87,8.73,1.95
368735,5.62,-5.21,24.48,0.80,8.73,2.02
368770,8.99,-5.98,26.01,0.86,8.73,1.97
368805,11.94,-7.21,31.40,0.98,8.73,1.92
368840,12.73,-7.51,36.36,1.03,8.73,1.87
368875,12.91,-8.24,39.94,1.10,8.73,1.86
368910,11.58,-8.43,42.03,1.14,8.73,1.85
368945,8.57,-8.54,43.09,1.17,8.73,1.95
368980,4.64,-7.37,43.81,1.17,8.73,1.98
369015,0.52,-8.02,42.69,1.23,8.73,2.01
369050,-3.12,-9.03,41.28,1.31,8.73,2.07
369085,-6.40,-8.51,39.21,1.22,8.73,2.17
369120,-8.65,-8.20,35.39,1.16,8.73,2.22
369155,-4.14,-7.30,30.32,1.09,8.73,2.25
369191,-0.29,-4.75,26.48,0.97,8.73,2.20
369225,3.03,-3.21,24.58,0.97,8.73,2.08
369260,4.66,-2.57,24.52,1.04,8.73,1.99
369295,6.62,-4.05,24.60,1.11,8.73,1.97
369331,9.62,-4.02,27.04,1.18,8.73,1.97
369366,12.16,-4.53,31.57,1.22,8.73,1.98
369400,13.93,-5.35,35.09,1.16,8.73,1.98
369435,13.16,-7.07,38.32,1.20,8.73,2.00
369470,11.13,-6.34,40.94,1.13,8.73,1.99
369505,7.41,-7.35,42.66,1.08,8.73,2.00
369540,3.24,-9.65,41.94,1.14,8.73,1.94
369576,0.28,-5.80,40.80,1.21,8.73,1.91
369610,-3.60,-7.94,39.50,1.23,8.73,1.93
369645,-7.07,-7.29,39.14,1.26,8.73,2.06
369680,-7.73,-5.97,34.04,1.13,8.73,2.15
369715,-7.12,-6.53,29.68,1.06,8.73,2.20
369750,-2.48,-6.90,25.67,0.94,8.73,2.20
369790,1.10,-5.54,24.32,0.91,8.73,2.16
369825,7.51,-6.15,24.72,0.83,8.73,2.14
369860,9.06,-5.42,24.80,0.76,8.73,2.09
369895,12.13,-4.59,28.72,0.74,8.73,2.03
369930,13.18,-5.25,32.63,0.73,8.73,1.96
369965,12.94,-7.21,34.89,0.70,8.73,1.81
370000,13.58,-6.26,38.27,0.76,8.73,1.70
370035,10.78,-5.65,41.66,0.92,8.73,1.63
370070,5.94,-6.38,41.49,1.10,8.73,1.68
370105,2.19,-3.42,43.61,1.25,8.73,1.75
370140,0.08,-6.59,41.61,1.25,8.73,1.89
370175,-2.77,-4.96,39.56,1.29,8.73,2.01
370210,-6.20,-5.79,36.91,1.36,8.73,2.10
370245,-7.07,-7.12,33.48,1.43,8.73,2.24
370280,-7.44,-7.90,30.52,1.45,8.73,2.50
370315,-4.10,-9.46,25.91,1.32,8.73,2.74
370350,1.38,-8.91,23.79,1.08,8.73,2.79
370385,7.81,-8.75,25.59,0.86,8.73,2.70
370420,9.88,-7.70,26.10,0.69,8.73,2.51
370455,12.01,-7.86,27.28,0.57,8.73,2.35
370490,13.57,-8.57,29.99,0.43,8.73,2.20
370525,13.10,-7.54,34.45,0.33,8.73,1.98
370560,11.73,-6.84,39.23,0.32,8.73,1.77
370595,8.52,-5.31,42.86,0.47,8.73,1.55
370630,4.93,-5.29,44.75,0.67,8.73,1.52
370665,1.31,-5.95,45.22,0.84,8.73,1.61
370700,-1.38,-5.37,43.41,0.88,8.73,1.69
370735,-2.78,-4.50,40.51,0.88,8.73,1.76
370770,-4.55,-2.29,37.84,0.96,8.73,1.75
370805,-5.92,-3.07,34.06,1.09,8.73,1.76
370840,-3.72,-2.91,29.70,1.25,8.73,1.81
370875,-0.98,-2.94,26.59,1.32,8.73,1.88
370910,2.68,-1.43,24.90,1.37,8.73,1.80
370944,7.94,-2.00,25.24,1.43,8.73,1.84
370979,10.33,-4.16,26.93,1.59,8.73,1.94
371014,12.14,-6.34,29.13,1.70,8.73,2.06
371049,12.95,-5.98,32.70,1.64,8.73,2.19
371084,13.01,-6.65,36.02,1.46,8.73,2.29
371119,11.26,-8.54,39.79,1.30,8.73,2.35
371154,8.63,-8.93,42.34,1.16,8.73,2.29
371189,5.71,-8.08,43.61,1.05,8.73,2.22
371224,1.11,-7.39,45.17,0.96,8.73,2.15
371259,-1.92,-9.27,42.67,0.94,8.73,2.15
371294,-3.47,-6.90,39.75,0.97,8.73,2.18
371329,-6.19,-6.43,35.95,0.94,8.73,2.12
371365,-6.20,-5.92,31.83,0.93,8.73,2.08
371399,-2.84,-4.13,28.28,0.94,8.73,2.12
371435,0.28,-4.57,24.54,0.93,8.73,2.13
371469,3.37,-5.43,23.32,0.90,8.73,2.24
371504,8.45,-8.83,23.71,0.81,8.73,2.31
371539,9.56,-5.92,25.25,0.69,8.73,2.25
371574,11.60,-7.11,29.40,0.72,8.73,2.11
371609,12.47,-4.89,33.38,0.70,8.73,2.00
371644,13.17,-5.64,36.48,0.85,8.73,1.93
371679,12.27,-5.97,40.35,0.88,8.73,1.95
371714,9.36,-5.85,43.84,0.94,8.73,1.98
371749,4.44,-8.39,44.29,0.98,8.73,2.00
371785,0.77,-8.73,43.28,1.01,8.73,2.00
371824,-2.83,-6.46,40.38,0.94,8.73,1.96
371859,-4.91,-5.67,36.82,0.92,8.73,1.96
371894,-6.28,-5.07,33.98,0.87,8.73,1.92
371929,-5.24,-5.11,30.06,0.87,8.73,1.82
371964,-3.10,-2.42,26.85,0.88,8.73,1.79
371999,0.40,-2.41,24.34,0.95,8.73,1.75
372034,4.84,-3.66,24.62,1.03,8.73,1.83
372069,7.72,-6.18,24.05,1.02,8.73,1.90
372104,10.27,-8.22,25.75,0.96,8.73,1.97
372139,11.85,-7.19,30.29,0.84,8.73,1.96
372174,12.89,-4.71,34.13,0.76,8.73,1.88
372209,12.71,-6.31,37.54,0.85,8.73,1.88
372244,10.75,-5.46,41.38,0.96,8.73,1.91
372279,7.39,-6.98,43.48,1.02,8.73,1.99
372315,3.36,-7.86,43.66,1.03,8.73,2.03
372349,-0.16,-7.27,41.89,1.09,8.73,1.98
372384,-3.49,-6.53,39.76,1.22,8.73,1.95
372419,-5.86,-5.22,36.13,1.37,8.73,1.98
372454,-5.59,-6.56,32.14,1.47,8.73,2.09
372489,-5.92,-5.44,29.36,1.41,8.73,2.25
372524,-3.16,-7.86,25.50,1.40,8.73,2.40
372559,0.13,-6.96,23.87,1.24,8.73,2.41
372594,4.48,-7.24,24.47,1.15,8.73,2.32
372629,7.52,-4.79,24.20,1.17,8.73,2.22
372664,11.45,-6.52,26.80,1.24,8.73,2.26
372699,14.30,-8.68,31.56,1.33,8.73,2.33
372734,13.70,-7.12,34.50,1.30,8.73,2.39
372769,13.08,-7.81,36.62,1.25,8.73,2.62
372804,10.56,-8.33,38.79,1.07,8.73,2.74
372840,6.26,-10.29,40.64,0.88,8.73,2.85
372874,3.08,-10.51,42.09,0.60,8.73,2.85
372909,-0.55,-10.34,44.24,0.32,8.73,2.73
372944,-3.66,-6.27,42.97,0.28,8.73,2.49
372979,-4.48,-5.31,38.11,0.38,8.73,2.25
373014,-6.66,-3.30,35.17,0.53,8.73,2.05
373049,-5.97,-3.05,30.77,0.69,8.73,1.97
373084,-3.16,-3.28,26.14,0.86,8.73,1.95
373119,2.20,-3.84,25.08,0.96,8.73,1.94
373154,6.93,-2.57,26.17,1.05,8.73,1.89
373189,10.28,-1.43,27.32,1.30,8.73,1.71
373224,11.90,-4.49,28.26,1.47,8.73,1.74
373259,12.53,-5.16,31.87,1.52,8.73,1.85
373294,13.09,-7.77,33.69,1.40,8.73,1.94
373330,13.48,-8.99,38.21,1.23,8.73,1.88
373364,10.32,-7.79,41.96,1.12,8.73,1.69
373399,5.50,-7.89,42.27,1.14,8.73,1.63
373435,1.14,-7.31,41.24,1.23,8.73,1.67
373469,-0.26,-9.70,39.22,1.20,8.73,1.84
373504,-3.32,-6.11,37.08,1.01,8.73,1.93
373539,-4.91,-6.44,34.47,0.78,8.73,1.95
373574,-6.45,-4.04,33.68,0.57,8.73,1.84
373609,-5.56,-2.94,29.91,0.65,8.73,1.73
373644,-3.24,-2.52,25.32,0.78,8.73,1.71
373679,1.85,-2.25,23.53,0.91,8.73,1.70
373714,7.51,-5.83,23.99,0.89,8.73,1.96
373749,9.46,-7.50,23.70,0.84,8.73,2.05
373784,10.59,-5.76,26.19,0.83,8.73,2.00
373819,11.48,-4.22,29.24,0.88,8.73,1.96
373859,11.77,-5.04,34.16,1.04,8.73,2.02
373894,12.20,-6.36,37.98,1.15,8.73,2.19
373928,10.43,-8.44,40.46,1.12,8.73,2.33
373963,4.64,-10.04,40.63,1.03,8.73,2.44
373998,2.49,-9.10,40.08,0.81,8.73,2.50
374033,-0.92,-7.34,39.75,0.61,8.73,2.42
374068,-4.68,-6.06,37.97,0.52,8.73,2.27
374104,-4.74,-7.74,34.76,0.56,8.73,2.14
374138,-6.10,-5.19,32.30,0.62,8.73,2.02
374173,-6.85,-3.89,28.91,0.68,8.73,1.94
374208,-2.38,-3.33,25.78,0.72,8.73,1.92
374243,0.74,-3.34,24.01,0.79,8.73,1.88
374278,4.96,-3.68,23.40,0.79,8.73,1.90
374314,7.96,-3.71,24.53,0.78,8.73,1.87
374348,10.83,-6.55,25.38,0.78,8.73,1.88
374383,13.03,-8.01,28.69,0.61,8.73,1.86
374418,12.90,-6.88,32.89,0.60,8.73,1.76
374453,12.54,-5.44,36.99,0.76,8.73,1.73
374488,11.29,-5.59,39.77,0.90,8.73,1.82
374523,6.22,-7.18,40.24,0.94,8.73,2.03
374558,2.96,-10.50,40.38,0.92,8.73,2.28
374593,-0.06,-7.63,42.26,0.77,8.73,2.40
374628,-3.67,-6.64,40.92,0.60,8.73,2.35
374663,-5.59,-5.24,37.75,0.66,8.73,2.25
374698,-7.89,-5.92,33.52,0.82,8.73,2.23
374733,-4.76,-5.67,28.61,0.89,8.73,2.23
374767,-0.52,-3.79,24.39,0.93,8.73,2.27
374802,1.79,-5.89,21.03,0.84,8.73,2.28
374837,3.30,-5.89,21.05,0.71,8.73,2.32
374872,6.21,-7.24,21.09,0.68,8.73,2.21
374907,9.43,-5.59,22.49,0.65,8.73,2.06
374942,11.94,-3.84,26.47,0.67,8.73,1.93
374977,12.15,-6.39,30.05,0.71,8.73,1.88
375012,12.62,-6.86,33.53,0.76,8.73,1.77
375047,10.84,-6.65,36.84,0.76,8.73,1.65
375082,8.45,-5.90,39.91,0.85,8.73,1.48
375117,5.60,-6.46,41.30,0.98,8.73,1.47
375152,1.09,-8.54,40.38,1.08,8.73,1.68
375187,-2.72,-5.98,39.37,0.81,8.73,2.00
375222,-3.24,-5.09,35.81,0.55,8.73,2.06
375257,-5.23,-3.85,32.38,0.42,8.73,1.96
375292,-6.49,-2.86,30.20,0.60,8.73,1.87
375327,-5.15,-1.19,27.33,0.81,8.73,1.94
375363,-2.51,-4.94,23.51,0.97,8.73,2.26
375397,1.58,-7.30,21.35,0.87,8.73,2.52
375432,5.42,-9.59,21.14,0.69,8.73,2.57
375467,6.72,-8.07,20.79,0.47,8.73,2.49
375502,9.81,-5.28,23.71,0.37,8.73,2.31
375538,12.29,-3.36,29.67,0.52,8.73,2.15
375572,12.81,-5.67,34.20,0.63,8.73,2.10
375607,12.91,-8.50,37.11,0.80,8.73,2.15
375642,10.25,-7.37,40.51,0.82,8.73,2.18
375677,5.66,-7.59,40.82,0.84,8.73,2.23
375712,3.45,-5.98,40.59,0.71,8.73,2.32
375747,-0.63,-7.68,39.99,0.55,8.73,2.24
375782,-4.42,-5.08,39.20,0.55,8.73,2.11
375818,-5.96,-3.71,36.80,0.66,8.73,2.01
375852,-5.94,-4.48,31.62,0.77,8.73,2.01
375892,-4.58,-3.62,27.52,0.96,8.73,2.07
375927,-1.40,-4.95,23.57,0.95,8.73,2.18
375962,0.31,-5.95,21.27,0.89,8.73,2.22
375997,3.66,-7.69,21.07,0.78,8.73,2.36
376033,6.19,-7.28,21.73,0.74,8.73,2.33
376067,11.14,-4.99,24.26,0.68,8.73,2.23
376102,12.90,-4.27,29.48,0.82,8.73,2.14
376137,13.61,-3.16,34.57,0.94,8.73,2.10
376173,13.10,-8.16,36.12,1.03,8.73,2.23
376207,10.78,-7.90,38.10,1.06,8.73,2.26
376242,7.69,-6.45,40.03,0.96,8.73,2.21
376277,4.19,-7.67,39.92,0.94,8.73,2.13
376313,0.02,-6.88,40.70,1.11,8.73,1.90
376347,-3.48,-4.47,39.47,1.24,8.73,1.83
376382,-5.29,-5.13,35.79,1.37,8.73,1.89
376417,-7.03,-6.49,32.23,1.30,8.73,2.01
376452,-7.75,-7.34,28.60,1.23,8.73,2.12
376487,-4.53,-5.21,26.09,1.24,8.73,2.20
376522,-1.57,-6.05,23.41,1.13,8.73,2.23
376557,1.34,-6.89,22.77,1.01,8.73,2.32
376592,4.76,-7.20,22.34,0.96,8.73,2.29
376627,8.49,-6.00,23.13,0.94,8.73,2.21
376662,12.20,-8.14,26.67,1.00,8.73,2.17
376697,14.63,-7.96,30.97,1.01,8.73,2.12
376732,14.07,-4.49,35.43,0.93,8.73,2.09
376767,11.69,-8.77,36.59,0.82,8.73,2.05
376802,8.62,-7.96,38.75,0.86,8.73,1.96
376837,5.80,-6.50,40.47,0.87,8.73,1.90
376872,1.89,-7.62,41.11,0.89,8.73,1.93
376907,-1.55,-6.76,39.82,1.02,8.73,1.89
376942,-4.03,-4.84,37.15,1.08,8.73,1.88
376977,-5.19,-5.13,34.02,1.12,8.73,1.86
377012,-5.45,-4.12,31.42,1.17,8.73,1.86
377047,-4.17,-3.96,28.21,1.13,8.73,1.90
377082,-3.05,-4.29,25.33,1.18,8.73,1.89
377117,0.15,-2.17,23.89,1.18,8.73,1.81
377152,6.13,-0.23,23.68,1.36,8.73,1.65
377188,10.63,0.23,24.93,1.71,8.73,1.54
377222,13.15,-1.87,26.37,1.90,8.73,1.73
377257,13.01,-6.06,29.41,1.97,8.73,2.00
377292,12.80,-9.08,32.66,1.73,8.73,2.20
377328,11.83,-10.13,36.52,1.42,8.73,2.21
377362,9.12,-9.01,40.07,1.22,8.73,2.09
377397,5.54,-7.76,41.01,1.16,8.73,1.90
377432,3.48,-5.26,41.82,1.30,8.73,1.68
377467,-1.61,-6.81,40.59,1.60,8.73,1.61
377502,-4.18,-8.70,39.31,1.76,8.73,1.78
377537,-5.63,-9.59,36.21,1.74,8.73,2.03
377573,-5.85,-9.04,32.32,1.54,8.73,2.11
377608,-5.69,-5.37,29.63,1.26,8.73,2.08
377643,-2.49,-4.55,25.86,1.12,8.73,1.88
377677,2.38,-0.57,23.70,1.15,8.73,1.60
377712,6.33,0.27,23.87,1.30,8.73,1.52
377747,8.31,-0.79,23.72,1.48,8.73,1.65
377782,10.99,-3.31,24.80,1.62,8.73,1.87
377817,12.37,-6.37,28.62,1.63,8.73,2.07
377852,12.28,-7.54,33.53,1.59,8.73,2.19
377886,12.47,-9.21,37.05,1.49,8.73,2.33
377926,9.11,-9.13,40.62,1.33,8.73,2.39
377961,6.08,-9.92,41.58,1.20,8.73,2.33
377996,3.21,-8.08,42.29,1.13,8.73,2.25
378031,-0.94,-7.33,41.80,1.18,8.73,2.17
378066,-4.54,-6.65,39.94,1.20,8.73,2.14
378101,-7.35,-6.44,38.51,1.21,8.73,2.19
378136,-5.86,-9.04,33.99,1.09,8.73,2.26
378171,-6.10,-6.83,30.17,0.96,8.73,2.18
378206,-3.08,-4.05,26.37,0.85,8.73,2.02
378241,1.52,-2.23,24.69,0.86,8.73,1.82
378276,6.55,-2.82,24.34,0.98,8.73,1.77
378311,9.22,-5.55,24.19,1.03,8.73,1.79
378347,11.51,-8.32,26.55,0.96,8.73,1.85
378382,12.31,-6.05,31.39,0.72,8.73,1.81
378416,13.09,-7.52,34.05,0.53,8.73,1.66
378451,12.24,-6.37,37.46,0.62,8.73,1.48
378486,9.50,-5.41,40.97,0.79,8.73,1.42
378521,5.68,-7.74,42.37,0.99,8.73,1.53
378556,2.82,-7.01,43.22,1.18,8.73,1.74
378592,-0.68,-6.06,41.94,1.14,8.73,1.90
378626,-3.91,-5.77,39.96,1.08,8.73,1.94
378661,-5.15,-5.38,36.09,1.04,8.73,1.97
378696,-6.44,-4.79,33.38,0.95,8.73,1.97
378731,-7.79,-4.60,30.20,0.96,8.73,1.96
378766,-3.88,-3.85,26.55,0.98,8.73,1.94
378801,2.41,-3.19,24.74,0.99,8.73,1.95
378837,6.40,-5.31,24.04,0.98,8.73,2.04
378871,9.31,-6.44,25.27,1.00,8.73,2.07
378905,11.26,-7.82,27.34,0.94,8.73,2.07
378940,13.07,-6.11,30.80,0.83,8.73,2.05
378974,12.85,-4.83,35.13,0.74,8.73,1.98
379009,11.80,-6.76,38.75,0.90,8.73,2.06
379045,10.13,-6.90,42.09,0.95,8.73,2.17
379079,5.88,-9.75,43.14,0.95,8.73,2.23
379114,1.82,-9.33,42.70,0.90,8.73,2.22
379149,-1.70,-8.94,42.25,0.87,8.73,2.14
379184,-4.54,-5.06,40.89,0.97,8.73,2.10
379219,-5.33,-6.42,36.86,1.03,8.73,2.07
379254,-6.14,-4.17,33.43,0.99,8.73,2.09
379289,-5.69,-5.83,29.18,1.06,8.73,2.20
379324,-1.68,-6.34,25.43,1.10,8.73,2.32
379358,2.83,-4.82,23.95,0.99,8.73,2.25
379393,6.40,-4.22,24.34,0.92,8.73,2.18
379428,8.60,-3.68,25.35,0.96,8.73,2.14
379463,10.87,-6.31,28.07,1.08,8.73,2.12
379498,11.98,-7.81,31.23,1.14,8.73,2.11
379533,12.78,-5.18,35.86,1.08,8.73,2.11
379568,11.62,-6.93,39.82,1.04,8.73,2.10
379603,9.09,-8.14,42.53,1.05,8.73,2.07
379638,5.61,-7.16,44.12,1.03,8.73,2.06
379673,1.80,-5.49,43.27,0.99,8.73,2.03
379707,-1.59,-4.81,41.87,0.94,8.73,1.99
379742,-4.28,-6.68,40.31,1.01,8.73,1.99
379777,-4.88,-6.53,36.46,0.99,8.73,2.03
379812,-6.06,-5.75,33.43,1.03,8.73,2.03
379847,-5.74,-3.69,30.17,1.02,8.73,2.09
379882,-3.79,-3.65,27.07,1.05,8.73,2.10
379917,3.37,-4.89,25.91,1.07,8.73,2.07
379957,9.56,-2.65,25.95,1.12,8.73,2.04
379992,11.63,-2.79,27.24,1.17,8.73,2.04
380027,12.59,-4.17,29.80,1.23,8.73,2.05
380062,12.93,-5.59,32.85,1.24,8.73,2.11
380097,12.59,-9.01,36.23,1.20,8.73,2.13
380132,12.05,-8.41,39.74,1.08,8.73,2.14
380167,8.38,-7.98,42.86,1.07,8.73,2.21
380202,4.45,-9.27,44.05,1.05,8.73,2.21
380237,1.33,-7.30,43.32,1.08,8.73,2.17
380272,-1.69,-5.15,40.40,1.10,8.73,2.10
380307,-3.92,-7.44,37.67,1.22,8.73,2.09
380343,-7.55,-6.35,36.36,1.26,8.73,2.22
380378,-8.04,-7.64,33.40,1.21,8.73,2.38
380412,-5.24,-8.31,29.68,1.18,8.73,2.53
380447,-0.96,-7.69,26.31,1.09,8.73,2.55
380482,3.70,-8.54,25.87,0.95,8.73,2.52
380517,9.16,-5.05,27.52,0.88,8.73,2.34
380552,12.87,-4.96,28.64,0.92,8.73,2.18
380587,13.36,-3.05,31.94,1.03,8.73,2.12
380622,13.40,-4.77,34.99,1.10,8.73,2.16
380658,12.45,-7.14,38.59,1.16,8.73,2.30
