timestamp,accelX,accelY,accelZ,gyroX,gyroY,gyroZ
143173,-0.31,-3.68,39.14,1.53,8.73,1.47
143208,-3.84,-6.38,34.34,1.66,8.73,1.62
143243,-4.44,-7.24,30.57,1.62,8.73,1.80
143278,-6.16,-5.18,28.18,1.48,8.73,1.90
143312,-3.97,-5.12,25.52,1.49,8.73,2.09
143347,-4.56,-7.11,21.84,1.43,8.73,2.17
143382,-1.81,-3.81,21.59,1.37,8.73,2.11
143417,2.79,-0.98,22.52,1.38,8.73,1.96
143452,8.21,1.30,23.14,1.52,8.73,1.86
143487,12.22,-3.28,25.53,1.86,8.73,1.86
143522,13.29,-2.68,28.63,1.97,8.73,2.03
143557,12.86,-6.14,30.19,1.84,8.73,2.27
143592,11.66,-11.76,32.59,1.50,8.73,2.40
143627,10.66,-9.64,36.18,1.28,8.73,2.27
143662,9.03,-6.99,40.60,0.96,8.73,1.98
143697,4.42,-7.93,41.64,1.01,8.73,1.77
143732,0.03,-9.08,41.44,1.24,8.73,1.64
143767,-1.99,-3.42,38.86,1.32,8.73,1.72
143802,-4.22,-6.85,33.78,1.21,8.73,1.77
143837,-5.53,-7.75,30.41,1.06,8.73,1.88
143872,-6.55,-3.69,28.22,1.03,8.73,1.75
143907,-4.39,-0.15,26.29,0.85,8.73,1.67
143942,-4.28,-2.91,22.83,0.93,8.73,1.53
143977,2.49,-0.84,23.56,1.08,8.73,1.48
144012,6.14,0.96,24.16,1.24,8.73,1.39
144047,9.27,0.34,24.10,1.34,8.73,1.49
144082,11.26,-5.63,26.39,1.38,8.73,1.64
144117,12.49,-7.43,29.39,1.31,8.73,1.76
144152,13.70,-8.65,33.18,1.13,8.73,1.65
144187,12.58,-6.12,37.22,0.97,8.73,1.43
144222,9.92,-4.88,39.83,0.95,8.73,1.15
144257,6.62,-5.19,40.27,1.25,8.73,1.02
144292,2.95,-6.83,41.68,1.61,8.73,1.19
144328,-0.58,-6.71,40.03,1.70,8.73,1.58
144362,-2.97,-7.85,38.29,1.56,8.73,1.93
144398,-5.54,-7.14,34.97,1.44,8.73,2.14
144437,-6.96,-7.02,31.01,1.39,8.73,2.26
144472,-5.69,-5.06,28.32,1.25,8.73,2.32
144507,-4.84,-5.71,24.56,1.05,8.73,2.35
144542,0.26,-5.80,23.96,0.96,8.73,2.38
144577,6.51,-7.00,23.71,0.81,8.73,2.35
144612,9.66,-7.99,24.59,0.65,8.73,2.29
144647,11.59,-7.95,26.34,0.51,8.73,2.18
144682,13.57,-6.90,28.88,0.34,8.73,1.96
144717,14.14,-6.13,33.21,0.28,8.73,1.71
144752,12.17,-5.56,38.19,0.33,8.73,1.42
144787,9.66,-2.47,42.15,0.48,8.73,1.12
144823,6.52,-2.64,43.98,0.74,8.73,1.01
144857,3.24,-4.82,43.85,1.13,8.73,1.06
144892,-0.17,-3.79,42.71,1.38,8.73,1.26
144927,-3.39,-4.29,40.04,1.34,8.73,1.47
144962,-4.52,-4.43,36.01,1.39,8.73,1.62
144997,-5.90,-4.46,32.50,1.45,8.73,1.70
145032,-4.11,-2.59,28.89,1.44,8.73,1.74
145068,-0.89,-2.30,25.74,1.49,8.73,1.73
145102,4.62,-2.03,24.71,1.59,8.73,1.64
145137,8.43,0.72,24.07,1.76,8.73,1.62
145172,9.95,1.50,26.14,2.09,8.73,1.67
145207,11.45,-2.53,28.00,2.11,8.73,1.94
145242,12.63,-5.92,30.47,2.08,8.73,2.29
145277,13.39,-10.69,33.30,1.90,8.73,2.52
145313,11.77,-11.31,36.89,1.64,8.73,2.61
145347,9.90,-9.26,40.54,1.27,8.73,2.48
145382,6.34,-8.71,41.35,1.13,8.73,2.24
145417,2.14,-8.39,42.20,1.14,8.73,2.08
145452,-0.58,-6.99,39.92,1.17,8.73,2.03
145487,-3.04,-8.52,36.81,1.26,8.73,2.07
145522,-4.08,-7.59,33.28,1.24,8.73,2.14
145557,-5.10,-6.14,30.42,1.12,8.73,2.13
145592,-3.23,-2.99,28.27,0.99,8.73,2.14
145627,-3.58,-5.73,24.82,0.94,8.73,2.14
145662,0.68,-6.73,23.37,0.94,8.73,2.13
145697,6.29,-5.84,23.55,0.87,8.73,2.13
145732,9.73,-5.96,23.06,0.85,8.73,2.09
145767,11.49,-4.95,25.29,0.71,8.73,2.05
145802,12.93,-7.30,28.23,0.65,8.73,2.01
145838,13.44,-6.52,31.57,0.81,8.73,2.02
145872,11.60,-5.30,33.62,1.09,8.73,2.07
145907,9.72,-5.55,38.42,1.00,8.73,2.14
145942,7.30,-8.20,42.04,0.92,8.73,2.09
145977,3.65,-7.81,43.53,1.00,8.73,1.85
146012,0.70,-6.73,41.01,1.26,8.73,1.65
146047,-3.04,-6.46,38.81,1.43,8.73,1.64
146082,-3.91,-6.84,35.22,1.29,8.73,1.79
146117,-5.77,-6.26,31.91,1.03,8.73,1.79
146152,-5.96,-0.94,30.02,0.86,8.73,1.71
146187,-4.67,0.32,26.78,0.88,8.73,1.55
146222,0.81,-0.31,25.44,1.03,8.73,1.41
146257,4.56,-0.48,24.45,1.20,8.73,1.39
146292,8.55,-1.04,23.56,1.40,8.73,1.49
146327,11.47,-4.83,26.56,1.49,8.73,1.69
146362,14.41,-6.86,30.36,1.33,8.73,1.88
146397,13.93,-7.28,33.58,1.19,8.73,1.95
146432,12.53,-5.94,37.14,1.12,8.73,1.98
146472,9.27,-8.03,40.19,1.12,8.73,1.93
146507,6.92,-6.66,40.95,1.09,8.73,1.89
146542,3.17,-6.99,43.03,1.14,8.73,1.84
146577,0.20,-7.05,42.07,1.23,8.73,1.87
146612,-4.00,-9.19,40.37,1.26,8.73,1.95
146647,-5.43,-6.79,36.38,1.20,8.73,2.03
146683,-5.49,-6.39,31.33,1.12,8.73,2.01
146717,-4.75,-4.55,27.71,1.03,8.73,1.91
146752,-3.62,-1.69,24.93,1.01,8.73,1.88
146787,0.34,-1.98,24.22,1.06,8.73,1.87
146822,1.39,-3.58,23.68,1.09,8.73,1.80
146857,7.42,-4.57,23.53,1.18,8.73,1.84
146892,11.07,-3.20,26.17,1.35,8.73,1.87
146927,13.49,-7.18,29.90,1.30,8.73,1.93
146962,14.20,-6.81,33.84,1.14,8.73,1.95
146997,12.92,-7.18,37.31,1.05,8.73,1.96
147032,10.25,-7.13,39.53,0.98,8.73,1.92
147067,6.66,-8.61,41.18,1.04,8.73,1.89
147102,3.27,-9.03,43.46,1.09,8.73,1.97
147137,0.06,-8.37,42.54,1.07,8.73,2.03
147172,-3.57,-8.73,39.92,1.00,8.73,2.06
147207,-5.04,-5.91,36.89,0.91,8.73,2.04
147242,-5.43,-4.53,32.38,0.82,8.73,1.93
147277,-4.56,-1.24,28.79,0.76,8.73,1.87
147313,-3.57,-3.66,24.14,0.81,8.73,1.81
147347,-1.10,-2.41,23.11,0.94,8.73,1.82
147382,4.95,-3.71,25.54,1.02,8.73,1.83
147417,8.62,-4.44,23.45,1.06,8.73,1.88
147452,10.76,-3.12,27.34,1.08,8.73,1.90
147488,13.24,-5.62,28.49,1.03,8.73,1.93
147522,13.29,-7.06,30.85,1.00,8.73,1.93
147557,12.43,-8.12,34.43,1.07,8.73,1.94
147592,10.95,-6.83,38.71,1.07,8.73,1.97
147627,8.75,-6.68,41.97,1.02,8.73,1.96
147662,4.31,-7.95,42.86,1.01,8.73,1.97
147697,0.18,-7.82,43.11,0.98,8.73,2.01
147732,-2.92,-7.10,40.01,0.97,8.73,2.00
147767,-4.77,-5.16,36.99,0.98,8.73,2.01
147802,-6.28,-5.24,33.85,0.93,8.73,2.00
147838,-5.73,-2.96,29.94,0.95,8.73,2.06
147872,-4.69,-6.05,25.79,0.97,8.73,2.16
147907,0.41,-8.52,23.34,1.02,8.73,2.29
147942,4.06,-6.13,22.72,0.91,8.73,2.29
147977,8.19,-7.06,22.89,0.85,8.73,2.22
148012,10.93,-4.33,23.98,0.84,8.73,2.09
148047,12.56,-4.34,27.26,0.84,8.73,2.00
148082,12.73,-5.76,30.64,0.93,8.73,1.99
148117,12.36,-7.76,33.66,0.97,8.73,1.99
148152,12.51,-7.04,37.75,1.06,8.73,2.00
148187,9.41,-5.20,40.73,0.98,8.73,2.03
148222,5.24,-8.58,40.88,0.99,8.73,2.06
148257,1.93,-8.10,42.76,0.92,8.73,2.03
148291,-0.79,-4.30,39.36,0.94,8.73,2.02
148327,-4.55,-4.43,37.49,0.86,8.73,1.92
148361,-4.57,-5.95,32.95,0.89,8.73,1.90
148396,-4.90,-5.46,28.77,0.85,8.73,1.87
148431,-3.87,-2.72,26.65,0.92,8.73,1.83
148466,-0.89,-0.57,23.87,0.86,8.73,1.74
148506,2.73,-3.65,21.83,0.99,8.73,1.81
148541,6.62,-3.79,22.55,1.03,8.73,1.84
148576,9.42,-2.79,23.39,0.97,8.73,1.95
148611,11.33,-8.48,25.40,0.92,8.73,1.99
148646,13.29,-7.34,28.05,0.87,8.73,2.00
148681,12.72,-5.11,31.99,0.88,8.73,1.93
148716,12.25,-3.56,35.04,0.98,8.73,2.09
148751,9.22,-11.15,38.31,1.02,8.73,2.11
148786,6.58,-7.94,40.35,0.97,8.73,2.17
148821,3.12,-7.63,40.96,0.93,8.73,2.17
148856,0.14,-5.72,39.32,0.94,8.73,2.09
148891,-3.77,-8.93,37.35,0.95,8.73,2.02
148926,-4.86,-5.56,34.37,1.00,8.73,1.97
148961,-7.03,-5.28,31.63,0.95,8.73,1.90
148996,-6.32,-1.71,29.10,0.90,8.73,1.95
149031,-3.66,-5.08,24.45,0.89,8.73,1.94
149066,0.94,-3.77,22.49,0.97,8.73,1.90
149101,5.31,-2.92,21.41,1.01,8.73,1.75
149136,8.23,-0.44,22.10,1.09,8.73,1.65
149171,10.86,-4.35,22.45,1.12,8.73,1.66
149206,10.23,-4.76,24.91,1.17,8.73,1.80
149241,12.70,-5.90,29.55,1.10,8.73,1.80
149276,12.62,-4.82,33.80,1.01,8.73,1.88
149311,11.77,-10.09,36.89,1.03,8.73,1.93
149347,8.96,-6.85,40.73,1.12,8.73,2.00
149381,5.35,-6.45,41.40,1.05,8.73,1.99
149416,1.07,-7.38,41.40,0.98,8.73,2.06
149451,-2.06,-8.58,37.90,1.08,8.73,2.01
149486,-4.56,-4.42,36.78,1.19,8.73,1.97
149521,-5.80,-6.12,32.30,1.17,8.73,2.02
149556,-5.98,-6.22,27.93,1.11,8.73,2.16
149591,-3.15,-7.98,24.61,1.18,8.73,2.18
149626,-1.13,-2.66,22.28,1.01,8.73,2.20
149661,0.99,-5.19,20.86,0.93,8.73,2.16
149696,4.25,-5.49,19.86,0.87,8.73,2.13
149731,8.10,-4.58,22.70,0.92,8.73,2.02
149766,11.59,-4.69,24.67,0.84,8.73,1.98
149801,11.96,-5.19,27.50,0.91,8.73,1.99
149836,13.50,-7.12,30.58,0.98,8.73,1.95
149871,12.79,-3.84,34.60,0.97,8.73,1.91
149906,10.24,-8.12,36.70,0.86,8.73,1.86
149941,6.93,-8.34,38.92,0.97,8.73,1.77
149976,3.68,-6.37,41.14,1.00,8.73,1.73
150011,0.44,-4.34,39.98,1.06,8.73,1.73
150046,-3.24,-9.78,36.74,1.01,8.73,1.82
150081,-3.05,-5.05,33.48,1.02,8.73,1.87
150116,-6.91,-4.50,30.34,0.86,8.73,1.79
150151,-8.13,-4.17,28.00,0.84,8.73,1.81
150186,-6.23,-2.52,25.74,1.02,8.73,1.78
150221,-2.05,-2.17,22.01,0.92,8.73,1.74
150256,-2.24,-3.92,19.20,1.04,8.73,1.82
150291,4.42,-4.00,21.68,1.11,8.73,1.82
150326,8.82,-1.23,21.62,1.12,8.73,1.83
150361,11.66,-5.30,24.98,1.11,8.73,1.91
150397,12.34,-5.33,28.00,1.13,8.73,1.97
150431,13.62,-6.22,31.46,1.02,8.73,1.90
150466,12.11,-5.74,35.15,0.89,8.73,1.95
150501,9.18,-9.17,36.44,1.02,8.73,1.88
150541,5.66,-7.47,37.79,0.99,8.73,1.83
150576,2.40,-8.44,38.42,1.04,8.73,1.81
150611,-0.08,-3.01,38.00,1.02,8.73,1.85
150646,-3.65,-8.18,34.91,1.07,8.73,1.83
150681,-5.85,-5.79,35.26,1.06,8.73,1.90
150716,-5.46,-6.15,29.87,1.10,8.73,1.97
150751,-5.30,-7.13,26.14,1.12,8.73,2.05
150786,-6.36,-3.97,24.10,1.06,8.73,2.11
150821,-0.77,-6.42,21.11,0.98,8.73,2.19
150856,2.32,-4.99,19.93,0.93,8.73,2.16
150891,6.70,-4.41,19.71,0.93,8.73,2.08
150926,9.81,-3.84,21.00,0.89,8.73,2.01
150961,11.25,-5.96,23.27,0.97,8.73,1.99
150996,12.66,-4.52,27.50,0.99,8.73,1.96
151031,13.14,-4.76,31.25,1.01,8.73,2.02
151066,11.57,-8.83,34.28,1.04,8.73,2.02
151101,9.75,-4.60,37.48,0.94,8.73,1.93
151136,5.58,-7.25,36.96,0.90,8.73,1.90
151171,2.45,-7.99,38.43,0.92,8.73,1.91
151206,-0.16,-5.18,39.13,0.87,8.73,1.89
151241,-3.45,-7.57,36.89,0.94,8.73,1.86
151276,-4.33,-4.04,33.45,0.93,8.73,1.82
151311,-6.53,-3.06,31.53,0.94,8.73,1.77
151346,-4.80,-5.90,26.70,0.86,8.73,1.71
151381,-4.36,0.72,23.58,0.90,8.73,1.56
151416,-0.41,0.13,22.04,0.87,8.73,1.35
151451,1.39,-1.22,19.82,1.05,8.73,1.36
151486,5.68,-2.60,20.03,1.18,8.73,1.48
151521,9.88,-2.48,22.00,1.18,8.73,1.64
151556,11.81,-7.54,23.73,1.09,8.73,1.77
151591,12.41,-6.93,27.24,0.91,8.73,1.73
151626,13.25,-6.40,30.27,0.79,8.73,1.65
151661,11.36,-7.95,33.10,0.80,8.73,1.49
151696,9.34,-3.96,36.55,0.80,8.73,1.39
151731,5.73,-6.54,37.35,0.97,8.73,1.40
151766,2.83,-7.13,39.18,1.11,8.73,1.50
151801,-0.40,-7.41,38.06,1.11,8.73,1.73
151836,-4.70,-8.49,36.93,1.10,8.73,1.84
151872,-5.30,-4.49,34.44,0.90,8.73,1.86
151906,-5.23,-2.86,30.04,0.85,8.73,1.83
151941,-4.21,-4.48,25.62,0.88,8.73,1.76
151976,-3.44,0.10,23.07,0.94,8.73,1.71
152011,-1.28,-3.03,20.46,0.92,8.73,1.64
152046,3.00,-1.67,19.81,0.99,8.73,1.60
152081,6.74,-1.66,19.51,1.08,8.73,1.59
152116,9.97,-3.72,19.69,1.08,8.73,1.70
152151,11.88,-4.66,24.34,1.09,8.73,1.77
152186,12.56,-7.64,25.83,0.90,8.73,1.79
152221,12.27,-7.34,30.01,0.85,8.73,1.78
152256,11.74,-4.47,33.50,0.86,8.73,1.74
152291,9.09,-6.73,36.20,0.93,8.73,1.80
152326,6.46,-6.41,38.14,0.97,8.73,1.84
152362,2.82,-6.03,39.78,0.95,8.73,1.84
152397,-0.28,-7.84,37.60,0.96,8.73,1.83
152432,-2.97,-4.56,36.67,1.15,8.73,1.78
152466,-5.31,-6.15,33.54,1.15,8.73,1.81
152501,-7.37,-6.24,31.24,1.17,8.73,1.90
152536,-4.31,-4.55,26.76,1.09,8.73,1.88
152576,-3.77,-1.64,21.48,0.96,8.73,1.77
152611,-0.68,-1.55,19.59,0.94,8.73,1.65
152646,1.61,-1.45,18.61,1.04,8.73,1.63
152681,4.57,-1.33,18.80,1.12,8.73,1.65
152716,7.44,-3.81,19.77,1.19,8.73,1.69
152751,11.20,-3.46,24.19,1.15,8.73,1.79
152786,12.99,-6.34,26.98,1.05,8.73,1.84
152822,13.38,-8.61,30.30,1.00,8.73,1.80
152856,12.39,-5.68,34.23,0.91,8.73,1.71
152891,9.11,-7.22,36.32,0.89,8.73,1.62
152926,6.32,-5.52,38.69,0.98,8.73,1.61
152961,3.40,-5.12,39.52,1.05,8.73,1.69
152996,-0.45,-8.51,37.13,1.03,8.73,1.78
153031,-2.80,-4.90,35.91,1.07,8.73,1.82
153066,-5.83,-5.70,33.12,1.01,8.73,1.85
153101,-5.63,-5.71,29.68,1.01,8.73,1.86
153136,-6.72,-2.93,26.64,0.95,8.73,1.84
153171,-5.95,-4.60,22.61,0.99,8.73,1.86
153206,-1.66,-2.26,20.65,0.95,8.73,1.83
153241,3.90,-4.35,19.17,0.96,8.73,1.79
153276,3.72,-0.74,19.79,1.04,8.73,1.85
153311,7.69,-3.76,19.37,1.12,8.73,1.81
153346,10.10,-2.88,21.95,1.27,8.73,1.84
153381,13.19,-4.64,24.71,1.16,8.73,1.88
153416,13.22,-5.80,28.32,1.18,8.73,1.95
153451,12.09,-5.35,31.69,1.16,8.73,1.97
153486,10.31,-8.47,34.90,1.04,8.73,1.98
153521,8.31,-6.48,37.39,1.01,8.73,1.89
153556,3.97,-7.19,38.43,0.98,8.73,1.81
153591,0.33,-7.43,37.62,1.03,8.73,1.78
153626,-2.53,-5.39,36.20,1.03,8.73,1.79
153661,-5.53,-6.09,34.05,1.09,8.73,1.83
153696,-5.96,-4.01,31.24,1.10,8.73,1.84
153731,-6.64,-6.83,28.87,0.97,8.73,1.90
153766,-3.54,-4.05,23.95,0.99,8.73,1.93
153801,-1.34,-3.55,20.40,0.95,8.73,1.93
153836,1.34,-4.88,18.51,0.97,8.73,1.90
153871,4.20,-4.56,19.21,0.92,8.73,1.93
153906,6.33,-3.85,18.42,0.93,8.73,1.90
153941,9.39,-1.86,20.77,0.95,8.73,1.91
153976,11.35,-6.01,23.79,1.02,8.73,1.89
154011,14.12,-5.07,27.21,1.03,8.73,1.85
154046,13.49,-4.80,30.20,1.08,8.73,1.94
154081,10.96,-6.47,32.75,1.14,8.73,2.00
154116,8.22,-7.53,35.74,1.06,8.73,2.03
154151,5.51,-7.09,36.58,1.00,8.73,2.02
154186,1.97,-7.42,37.35,0.95,8.73,2.06
154221,-0.73,-5.33,34.74,1.04,8.73,1.97
154256,-4.43,-5.44,34.46,1.09,8.73,1.91
154291,-4.95,-5.24,33.31,1.36,8.73,1.91
154326,-6.26,-8.18,28.14,1.40,8.73,2.04
154361,-4.70,-6.88,24.68,1.26,8.73,2.07
154396,-4.06,-4.63,20.76,1.05,8.73,2.04
154431,0.28,-4.13,19.80,1.02,8.73,2.03
154466,2.14,-3.89,17.98,0.94,8.73,2.00
154501,5.00,-4.58,17.67,0.88,8.73,1.99
154536,7.82,-4.90,18.60,0.76,8.73,2.05
154571,11.29,-6.66,21.00,0.70,8.73,2.01
154611,13.51,-5.94,24.32,0.67,8.73,1.92
154646,12.58,-5.30,28.61,0.65,8.73,1.83
154681,12.37,-6.48,31.37,0.64,8.73,1.82
154716,9.06,-5.96,33.27,0.71,8.73,1.79
154751,6.67,-6.96,36.60,0.78,8.73,1.66
154786,3.63,-5.46,37.78,0.78,8.73,1.59
154821,0.32,-6.23,37.52,0.81,8.73,1.61
154856,-2.91,-4.83,36.99,0.94,8.73,1.60
154891,-5.49,-4.55,34.23,0.87,8.73,1.57
154926,-5.31,-4.22,29.69,0.79,8.73,1.56
154961,-6.88,-0.74,27.17,0.75,8.73,1.42
154996,-3.56,-0.40,23.70,0.83,8.73,1.32
155031,-2.34,2.00,20.80,0.97,8.73,1.17
155066,1.19,1.46,19.34,1.17,8.73,1.14
155101,4.53,-0.34,19.24,1.34,8.73,1.22
155136,7.36,-1.15,18.98,1.52,8.73,1.40
155171,10.54,-2.91,22.91,1.66,8.73,1.57
155206,13.03,-5.16,24.32,1.59,8.73,1.79
155241,12.53,-6.96,27.14,1.44,8.73,1.99
155276,12.64,-7.78,30.14,1.35,8.73,2.12
155311,10.69,-8.33,34.01,1.21,8.73,2.24
155347,8.55,-9.21,36.76,1.12,8.73,2.35
155381,4.64,-9.39,37.60,0.93,8.73,2.47
155416,1.90,-8.71,38.82,0.64,8.73,2.49
155451,-2.78,-8.79,37.41,0.46,8.73,2.41
155486,-5.88,-6.17,37.30,0.28,8.73,2.24
155521,-5.09,-4.03,32.20,0.26,8.73,2.01
155556,-6.73,-2.75,28.72,0.40,8.73,1.82
155591,-4.08,-2.32,24.99,0.56,8.73,1.70
155626,-2.09,-2.88,21.44,0.72,8.73,1.71
155661,1.22,-4.03,19.41,0.81,8.73,1.77
155696,2.84,-4.41,19.51,0.81,8.73,1.82
155731,5.47,-5.70,18.33,0.82,8.73,1.85
155766,9.54,-3.17,20.89,0.87,8.73,1.85
155801,13.35,-6.14,25.16,1.01,8.73,1.85
155836,13.78,-5.12,28.18,1.12,8.73,1.91
155871,13.03,-4.83,31.74,1.25,8.73,2.08
155906,11.58,-8.29,32.82,1.29,8.73,2.35
155941,7.89,-10.24,34.95,1.15,8.73,2.55
155976,6.59,-11.79,38.54,1.00,8.73,2.57
156011,1.39,-8.19,39.53,0.83,8.73,2.34
156046,-0.62,-7.48,36.68,0.80,8.73,2.09
156081,-4.94,-7.33,33.65,0.87,8.73,1.94
156116,-4.73,-6.39,30.23,0.86,8.73,1.86
156151,-5.76,-4.83,26.62,0.79,8.73,1.77
156186,-5.86,-3.82,25.01,0.77,8.73,1.64
156221,-4.67,-3.04,21.78,0.86,8.73,1.58
156256,-1.45,-1.69,19.42,0.92,8.73,1.42
156291,3.18,-0.79,18.88,1.03,8.73,1.26
156326,8.34,4.30,19.03,1.40,8.73,0.97
156361,9.33,1.58,18.74,2.00,8.73,0.95
156396,10.61,-0.09,22.97,2.09,8.73,1.46
156431,11.86,-7.60,27.62,1.94,8.73,1.90
156466,12.89,-11.99,31.03,1.58,8.73,2.12
156501,12.60,-11.07,35.64,1.46,8.73,2.22
156536,8.00,-9.50,37.25,1.32,8.73,2.48
156571,6.22,-10.86,37.98,1.05,8.73,2.58
156606,1.42,-11.81,37.69,0.80,8.73,2.55
156646,-2.10,-9.37,37.04,0.45,8.73,2.51
156681,-5.72,-8.51,35.39,0.33,8.73,2.31
156716,-5.16,-5.02,32.54,0.19,8.73,2.01
156751,-6.24,-2.35,27.49,0.16,8.73,1.71
156786,-3.61,-0.29,24.10,0.21,8.73,1.48
156821,-2.56,-0.54,21.39,0.52,8.73,1.29
156856,0.71,1.61,21.13,0.75,8.73,1.16
156891,4.76,-0.13,21.30,0.94,8.73,1.20
156926,6.94,-2.99,21.49,1.08,8.73,1.39
156961,9.63,-5.85,22.80,1.27,8.73,1.53
156996,13.47,-8.26,27.17,1.19,8.73,1.66
157031,13.73,-8.69,31.65,1.12,8.73,1.71
157066,13.35,-7.01,33.36,1.15,8.73,1.76
157101,9.19,-8.47,34.96,1.13,8.73,1.85
157136,8.32,-8.76,37.42,1.14,8.73,2.01
157171,3.29,-9.89,38.08,1.03,8.73,2.22
157206,0.72,-9.28,39.44,0.79,8.73,2.37
157241,-3.32,-9.35,36.72,0.57,8.73,2.31
157276,-4.65,-7.17,33.87,0.47,8.73,2.16
157311,-5.76,-4.00,29.40,0.30,8.73,1.93
157346,-5.87,-2.66,26.46,0.30,8.73,1.72
157382,-3.25,-2.82,22.85,0.44,8.73,1.53
157416,-3.79,0.98,19.01,0.55,8.73,1.34
157451,3.76,0.76,20.30,0.79,8.73,1.23
157486,5.92,-1.45,18.99,1.00,8.73,1.23
157521,6.45,-1.63,19.16,1.21,8.73,1.29
157556,9.28,-1.71,20.32,1.40,8.73,1.45
157591,12.56,-4.99,24.88,1.50,8.73,1.63
157626,13.21,-5.71,27.53,1.57,8.73,1.86
157661,11.43,-5.37,30.46,1.61,8.73,2.13
157696,11.43,-10.40,35.22,1.51,8.73,2.40
157731,7.85,-11.49,37.49,1.35,8.73,2.53
157766,4.42,-10.40,36.50,1.04,8.73,2.66
157801,0.07,-10.55,35.73,0.75,8.73,2.67
157836,-2.22,-8.28,35.68,0.59,8.73,2.55
157871,-4.71,-7.65,32.96,0.50,8.73,2.35
157906,-6.23,-5.29,29.35,0.47,8.73,2.12
157941,-5.30,-4.78,25.29,0.40,8.73,1.89
157976,-3.58,-4.24,21.28,0.42,8.73,1.77
158011,-4.54,-2.68,17.38,0.49,8.73,1.72
158046,-0.14,-2.74,17.19,0.55,8.73,1.65
158081,-4.50,-6.68,15.59,0.50,8.73,1.59
158116,2.81,-4.73,16.87,0.46,8.73,1.73
158151,9.04,-3.96,18.73,0.48,8.73,1.65
158186,13.86,-5.55,23.97,0.69,8.73,1.52
158221,15.67,-4.50,24.23,0.68,8.73,1.43
158256,13.01,-5.55,25.35,0.73,8.73,1.39
158291,11.45,-6.24,27.87,0.80,8.73,1.37
158326,9.11,-5.80,30.47,0.91,8.73,1.41
158361,7.74,-5.43,33.64,1.05,8.73,1.53
158396,4.56,-7.40,34.64,1.10,8.73,1.78
158431,0.67,-6.69,35.03,0.95,8.73,1.96
158466,-2.39,-6.51,31.34,0.84,8.73,2.02
158501,-4.94,-3.78,32.21,0.84,8.73,1.95
158536,-3.91,-4.83,26.18,0.86,8.73,1.91
158571,-7.33,-3.26,24.64,0.95,8.73,1.84
158606,-4.29,-5.37,22.25,0.99,8.73,1.88
158641,-4.39,-4.54,17.93,0.92,8.73,1.88
158681,-0.87,-1.84,16.47,0.85,8.73,1.66
158716,2.00,-1.26,15.67,0.86,8.73,1.40
158751,4.44,-1.16,16.07,0.94,8.73,1.40
158786,7.70,-3.01,16.45,0.99,8.73,1.48
158821,10.58,-3.24,18.19,0.97,8.73,1.59
158856,11.77,-5.62,21.41,0.93,8.73,1.64
158891,12.54,-5.06,24.80,0.85,8.73,1.62
158926,12.68,-4.63,27.85,0.92,8.73,1.63
158961,10.82,-4.65,30.20,1.00,8.73,1.67
158996,8.49,-6.01,32.64,1.00,8.73,1.62
159031,4.71,-5.48,32.86,0.97,8.73,1.54
159066,2.18,-4.68,33.43,0.99,8.73,1.44
159101,-1.16,-8.24,33.68,1.09,8.73,1.57
159136,-4.35,-5.37,33.15,1.16,8.73,1.71
159171,-6.54,-5.17,31.24,1.12,8.73,1.78
159206,-6.00,-6.10,27.30,1.12,8.73,1.86
159241,-6.21,-4.46,22.66,1.21,8.73,1.97
159276,-3.72,-4.52,18.19,1.24,8.73,2.04
159311,-4.90,-5.45,15.91,1.14,8.73,2.08
159347,-2.72,-4.60,15.29,0.98,8.73,2.07
159381,-0.30,-2.37,15.58,0.92,8.73,1.91
159416,4.95,-1.61,16.29,0.98,8.73,1.78
159451,8.62,-1.61,16.40,1.08,8.73,1.70
159486,12.22,-2.31,20.27,1.17,8.73,1.70
159521,14.27,-1.96,22.70,1.31,8.73,1.76
159556,13.53,-4.40,24.77,1.36,8.73,1.87
159591,11.84,-6.01,24.81,1.25,8.73,1.97
159626,10.34,-6.97,29.56,1.26,8.73,2.14
159661,8.80,-7.06,33.64,1.09,8.73,2.13
159696,4.68,-5.86,33.40,0.96,8.73,2.07
159731,1.12,-6.27,34.33,0.93,8.73,1.96
159766,-1.32,-6.44,33.78,0.95,8.73,1.86
159801,-3.95,-5.53,31.66,1.02,8.73,1.83
159836,-5.67,-4.02,29.30,1.19,8.73,1.83
159871,-6.09,-5.85,25.17,1.32,8.73,1.94
159906,-6.39,-4.75,21.24,1.39,8.73,2.09
159941,-5.15,-6.08,17.59,1.33,8.73,2.26
159976,-4.43,-6.96,15.39,1.16,8.73,2.28
160011,-0.96,-3.89,14.55,0.99,8.73,2.13
160046,2.77,-1.88,15.30,0.95,8.73,1.94
160081,5.89,-3.52,15.97,1.03,8.73,1.77
160116,9.84,-3.53,17.99,1.05,8.73,1.75
160151,11.06,-3.44,20.41,1.07,8.73,1.79
160186,12.64,-5.53,22.96,1.05,8.73,1.83
160221,12.63,-5.96,26.64,0.92,8.73,1.78
160256,10.84,-6.46,29.03,0.83,8.73,1.71
160291,8.87,-6.56,31.41,0.79,8.73,1.61
160326,6.47,-6.01,34.43,0.81,8.73,1.45
160362,3.29,-5.59,36.19,0.94,8.73,1.45
160396,0.37,-4.89,35.02,1.05,8.73,1.47
160431,-2.73,-5.94,33.18,1.02,8.73,1.60
160466,-4.94,-4.55,30.33,0.88,8.73,1.67
160501,-5.54,-3.20,26.41,0.81,8.73,1.62
160536,-5.97,-2.54,22.61,0.81,8.73,1.57
160571,-4.31,-1.59,19.51,0.78,8.73,1.48
160606,-3.78,0.47,17.31,0.83,8.73,1.40
160641,-1.44,0.15,15.59,0.96,8.73,1.37
160676,2.14,-2.14,14.18,1.02,8.73,1.39
160716,5.61,0.27,16.50,1.11,8.73,1.48
160751,8.84,-3.23,15.98,1.23,8.73,1.53
160786,8.60,-2.37,17.74,1.26,8.73,1.67
160821,10.97,-3.90,21.79,1.28,8.73,1.78
160856,12.36,-5.02,25.31,1.24,8.73,1.92
160891,11.96,-6.56,28.20,1.19,8.73,2.02
160926,11.13,-7.59,31.64,1.09,8.73,2.05
160961,8.20,-8.41,33.96,1.01,8.73,2.10
160996,4.13,-7.64,34.21,0.92,8.73,2.06
161031,1.13,-7.89,34.13,0.89,8.73,1.92
161066,-1.07,-5.94,32.20,0.87,8.73,1.85
161101,-4.47,-4.61,30.91,0.94,8.73,1.77
161136,-4.58,-4.97,27.06,1.01,8.73,1.78
161171,-5.99,-5.13,24.24,1.16,8.73,1.81
161206,-7.69,-5.57,23.09,1.16,8.73,1.89
161241,-5.15,-4.89,18.22,1.11,8.73,1.96
161276,-3.86,-3.81,15.99,1.02,8.73,1.93
161311,0.18,-3.47,15.72,0.97,8.73,1.79
161347,4.25,-2.49,15.78,0.96,8.73,1.73
161381,5.69,-2.19,15.36,1.03,8.73,1.68
161417,7.86,-2.52,17.02,1.12,8.73,1.70
161451,11.03,-4.30,20.34,1.13,8.73,1.79
161486,12.33,-6.00,23.49,1.13,8.73,1.87
161521,13.22,-6.44,26.38,1.03,8.73,1.91
161556,12.20,-7.24,29.33,0.95,8.73,1.92
161591,9.12,-6.72,30.79,0.85,8.73,1.90
161626,6.07,-7.22,32.58,0.79,8.73,1.91
161661,2.86,-7.39,33.38,0.72,8.73,1.97
161696,0.04,-6.85,32.24,0.64,8.73,1.96
161731,-2.64,-6.60,30.49,0.51,8.73,1.94
161766,-5.60,-5.86,30.18,0.37,8.73,1.82
161801,-4.84,-3.37,26.36,0.39,8.73,1.68
161836,-6.25,-2.77,22.79,0.49,8.73,1.56
161871,-9.88,0.30,21.60,0.63,8.73,1.48
161906,-5.84,-1.71,18.87,0.74,8.73,1.38
161941,-2.75,1.21,17.79,0.93,8.73,1.32
161976,1.74,0.94,15.16,1.14,8.73,1.33
162011,6.12,2.25,16.92,1.40,8.73,1.23
162046,8.50,1.51,18.58,1.74,8.73,1.16
162081,9.86,1.28,18.88,2.14,8.73,1.33
162116,11.71,-1.87,24.00,2.31,8.73,1.67
162151,12.89,-6.26,26.63,2.38,8.73,2.17
162186,11.53,-9.68,30.34,2.23,8.73,2.60
162221,11.10,-12.52,33.62,1.78,8.73,2.83
162256,7.58,-12.27,34.95,1.43,8.73,2.78
162291,4.74,-10.93,37.42,1.11,8.73,2.56
162326,0.39,-9.02,36.66,0.92,8.73,2.33
162361,-1.73,-8.74,32.82,0.96,8.73,2.23
162397,-4.61,-6.48,32.25,1.08,8.73,2.08
162431,-5.26,-8.47,28.16,1.06,8.73,2.07
162466,-6.45,-7.42,25.30,0.98,8.73,2.09
162501,-5.92,-6.63,22.33,0.91,8.73,2.09
162536,-4.30,-5.09,18.82,0.75,8.73,1.90
162571,-0.16,-1.99,17.96,0.75,8.73,1.65
162606,1.60,-1.25,16.99,0.84,8.73,1.45
162641,4.60,-1.31,17.07,1.03,8.73,1.36
162676,8.24,-1.29,16.99,1.23,8.73,1.39
162711,11.21,-4.69,20.42,1.27,8.73,1.56
162751,13.07,-6.69,23.85,1.20,8.73,1.69
162786,11.99,-6.77,27.15,1.14,8.73,1.75
162821,12.89,-7.73,30.20,1.11,8.73,1.81
162856,9.45,-8.28,30.70,1.06,8.73,1.84
162891,6.24,-8.33,33.85,0.98,8.73,1.85
162926,3.62,-9.59,35.95,0.89,8.73,2.05
162961,0.96,-8.11,35.92,0.73,8.73,2.09
162996,-2.75,-8.36,33.98,0.46,8.73,2.06
163031,-5.67,-6.49,32.01,0.18,8.73,1.94
163066,-4.98,-3.80,28.14,-0.11,8.73,1.70
163101,-6.75,-0.24,25.21,-0.24,8.73,1.29
163136,-6.59,2.03,23.11,-0.18,8.73,0.91
163171,-4.57,6.68,19.97,0.18,8.73,0.61
163206,-0.98,5.36,18.72,0.60,8.73,0.50
163241,1.87,0.20,17.54,0.96,8.73,0.81
163276,6.64,-1.73,18.14,1.19,8.73,1.09
163311,9.43,-4.65,21.10,1.17,8.73,1.37
163346,12.62,-5.01,23.63,1.20,8.73,1.51
163381,13.23,-6.66,26.49,1.21,8.73,1.60
163416,12.14,-7.00,29.58,1.21,8.73,1.70
163451,11.46,-8.14,31.41,1.18,8.73,1.79
163486,8.92,-8.41,32.14,1.09,8.73,1.85
163521,5.12,-8.62,32.85,1.01,8.73,2.00
163556,2.07,-10.92,35.27,0.83,8.73,2.42
163591,-0.04,-8.50,33.78,0.79,8.73,2.31
163626,-4.29,-8.95,35.04,0.59,8.73,2.28
163661,-5.45,-5.73,29.60,0.39,8.73,2.13
163696,-5.44,-4.89,24.55,0.48,8.73,1.92
163731,-5.40,-4.04,21.82,0.49,8.73,1.71
163766,-6.89,-2.36,20.43,0.58,8.73,1.64
163801,-5.77,-2.82,18.68,0.65,8.73,1.62
163836,-1.52,-1.48,16.89,0.71,8.73,1.42
163871,3.52,-0.75,16.62,0.83,8.73,1.28
163906,9.08,0.64,17.36,1.05,8.73,1.19
163941,12.11,-0.87,18.41,1.34,8.73,1.18
163976,6.95,-1.26,18.21,1.41,8.73,1.43
164011,11.05,-7.25,24.51,1.47,8.73,1.53
164046,13.35,-6.23,25.30,1.34,8.73,1.71
164081,11.11,-7.87,29.96,1.27,8.73,1.85
164116,8.11,-8.46,33.00,1.16,8.73,1.89
164151,6.04,-8.39,33.78,1.08,8.73,1.93
164186,3.08,-8.03,35.26,0.96,8.73,2.02
164221,-1.10,-8.18,34.30,0.84,8.73,2.06
164256,-3.51,-8.13,32.17,0.59,8.73,2.11
164291,-5.65,-6.95,30.27,0.34,8.73,2.04
164326,-6.46,-3.41,27.12,0.16,8.73,1.85
164361,-6.96,-2.04,23.56,0.16,8.73,1.62
164397,-5.85,-1.48,20.82,0.30,8.73,1.49
164431,-4.97,-0.68,17.01,0.49,8.73,1.49
164466,-1.19,-2.32,16.16,0.65,8.73,1.57
164501,-1.03,-1.24,16.07,0.70,8.73,1.66
164536,8.89,-7.03,16.66,0.66,8.73,1.64
164571,11.03,-2.31,18.16,0.58,8.73,1.68
164606,11.09,-2.70,20.91,0.69,8.73,1.61
164641,11.88,-6.61,23.03,0.76,8.73,1.52
164676,12.94,-4.64,25.48,0.81,8.73,1.49
164711,11.73,-6.56,28.53,0.94,8.73,1.53
164746,9.60,-6.00,31.67,0.97,8.73,1.61
164786,7.12,-6.55,33.76,1.03,8.73,1.65
164821,3.65,-7.29,34.23,1.04,8.73,1.74
164856,-0.13,-6.85,34.08,1.00,8.73,1.83
164891,-2.65,-7.02,31.84,0.83,8.73,1.93
164926,-4.58,-6.92,29.64,0.67,8.73,1.93
164961,-5.79,-5.23,27.36,0.41,8.73,1.87
164996,-8.48,-2.39,26.39,0.31,8.73,1.74
165031,-5.80,-1.79,22.85,0.32,8.73,1.61
165066,-5.53,-0.13,19.25,0.47,8.73,1.53
165101,-2.77,-1.52,17.60,0.62,8.73,1.57
165136,1.68,-2.64,16.05,0.67,8.73,1.56
165171,5.04,-2.91,17.28,0.68,8.73,1.62
165206,8.16,-3.97,16.46,0.70,8.73,1.64
165241,10.95,-2.96,19.22,0.69,8.73,1.63
165276,12.61,-5.37,22.37,0.66,8.73,1.60
165311,12.97,-5.27,25.01,0.61,8.73,1.49
165346,12.10,-4.64,28.52,0.70,8.73,1.41
165382,11.20,-5.74,30.88,0.79,8.73,1.38
165416,8.82,-4.84,33.86,0.91,8.73,1.34
165451,5.25,-5.09,33.78,1.04,8.73,1.37
165486,2.06,-6.02,35.47,1.12,8.73,1.50
165521,-0.93,-5.85,36.05,1.15,8.73,1.65
165556,-3.92,-6.03,33.71,1.23,8.73,1.72
165591,-6.09,-5.54,30.38,1.28,8.73,1.80
165626,-6.31,-6.10,26.76,1.35,8.73,1.94
165661,-7.29,-5.85,23.34,1.36,8.73,2.13
165696,-6.51,-6.06,20.44,1.29,8.73,2.27
165731,-4.79,-6.89,18.51,1.13,8.73,2.35
165766,0.24,-5.36,17.65,0.98,8.73,2.34
165801,4.03,-4.71,17.27,0.87,8.73,2.25
165836,7.69,-5.36,19.08,0.77,8.73,2.20
165871,10.51,-5.99,20.21,0.75,8.73,2.09
165906,12.65,-5.34,22.90,0.65,8.73,2.00
165941,13.61,-5.88,26.20,0.62,8.73,1.92
165976,12.06,-5.81,29.63,0.62,8.73,1.82
166011,11.23,-6.55,32.02,0.65,8.73,1.75
166046,8.13,-5.12,34.06,0.64,8.73,1.71
166081,5.42,-5.56,35.34,0.68,8.73,1.79
166116,2.57,-6.85,36.45,0.68,8.73,1.90
166151,-0.20,-4.43,33.80,0.50,8.73,1.93
166186,-4.37,-6.39,33.15,0.31,8.73,1.91
166221,-5.20,-1.94,32.32,0.23,8.73,1.71
166256,-7.47,-2.64,29.31,0.13,8.73,1.51
166291,-6.18,3.93,27.80,0.19,8.73,1.25
166326,-6.00,2.27,23.22,0.46,8.73,1.17
166361,-0.98,0.67,20.41,0.78,8.73,1.30
166396,1.19,-3.99,17.99,0.92,8.73,1.61
166431,6.36,-4.84,18.03,0.87,8.73,1.80
166466,9.68,-6.14,18.11,0.78,8.73,1.86
166501,11.37,-3.92,20.73,0.72,8.73,1.80
166536,13.02,-4.66,23.32,0.76,8.73,1.74
166571,13.37,-5.26,26.68,0.81,8.73,1.68
166606,11.93,-6.00,29.37,0.83,8.73,1.71
166641,10.63,-6.12,31.77,0.83,8.73,1.73
166676,8.18,-7.01,34.57,0.94,8.73,1.89
166711,5.05,-6.95,36.46,1.00,8.73,1.78
166746,1.47,-7.78,38.09,1.04,8.73,1.82
166781,-1.65,-7.15,36.59,0.89,8.73,1.99
166821,-4.59,-6.51,33.64,0.88,8.73,2.00
166856,-5.34,-4.90,30.04,0.86,8.73,1.98
166891,-6.49,-4.30,26.09,0.86,8.73,1.96
166926,-4.06,-5.09,23.00,0.91,8.73,2.01
166961,-3.63,-4.06,20.32,0.88,8.73,2.09
166996,-1.66,-5.88,17.96,0.87,8.73,2.21
167031,1.56,-5.76,17.82,0.73,8.73,2.23
167066,6.03,-4.64,18.50,0.68,8.73,2.09
167101,10.50,-2.84,19.65,0.68,8.73,1.93
167136,11.26,-5.06,21.13,0.76,8.73,1.84
167171,12.81,-1.47,25.92,0.84,8.73,1.79
167206,13.19,-5.95,28.68,0.86,8.73,1.82
167241,12.13,-4.27,32.02,0.91,8.73,1.82
167276,8.51,-6.40,34.38,0.93,8.73,1.92
167311,6.49,-6.56,37.17,0.94,8.73,1.95
167347,3.06,-6.38,39.13,0.88,8.73,1.98
167381,-0.54,-7.68,38.44,0.86,8.73,1.96
167416,-3.34,-3.49,37.80,0.91,8.73,1.88
167451,-4.81,-4.99,33.52,1.07,8.73,1.89
167486,-5.19,-5.93,28.70,1.15,8.73,1.93
167521,-5.03,-4.52,25.11,1.12,8.73,2.03
167556,-3.79,-4.87,21.51,1.12,8.73,2.13
167591,-1.46,-5.52,18.90,1.00,8.73,2.16
167626,2.78,-6.08,17.65,0.92,8.73,2.18
167661,5.85,-3.92,18.11,0.82,8.73,2.16
167696,6.44,-3.43,18.57,0.77,8.73,2.13
167731,10.15,-5.99,21.65,0.71,8.73,2.03
167766,12.37,-5.76,24.42,0.67,8.73,1.93
167801,12.48,-4.81,28.01,0.69,8.73,1.81
167836,11.37,-5.31,31.54,0.74,8.73,1.76
167871,11.13,-6.71,36.00,0.77,8.73,1.66
167906,7.97,-5.47,37.93,0.76,8.73,1.54
167941,4.48,-6.47,39.30,0.90,8.73,1.51
167976,1.13,-5.00,38.66,1.07,8.73,1.45
168011,-2.76,-4.90,36.48,1.05,8.73,1.56
168047,-5.46,-4.94,34.90,1.09,8.73,1.63
168081,-5.72,-3.79,30.23,1.02,8.73,1.65
168116,-6.53,-3.84,26.53,0.92,8.73,1.63
168151,-5.90,-0.66,24.42,0.88,8.73,1.57
168186,-3.57,-1.51,21.91,0.97,8.73,1.56
168221,-0.19,-0.65,19.89,1.04,8.73,1.61
168256,3.28,-3.06,19.35,1.09,8.73,1.85
168291,5.70,-4.46,19.83,1.13,8.73,1.97
168326,9.62,-4.32,20.94,1.07,8.73,2.05
168361,11.58,-5.41,24.86,1.15,8.73,2.11
168397,12.65,-3.57,28.55,1.21,8.73,2.15
168431,11.99,-5.22,31.46,1.25,8.73,2.32
168466,12.04,-8.26,34.59,1.24,8.73,2.49
168501,8.36,-7.99,37.07,1.06,8.73,2.62
168536,5.89,-8.81,37.68,0.83,8.73,2.54
168571,1.26,-8.70,39.16,0.65,8.73,2.42
168606,-0.88,-5.71,37.24,0.61,8.73,2.22
168641,-3.73,-4.97,33.76,0.79,8.73,2.04
168676,-5.28,-4.18,31.13,0.91,8.73,1.92
168711,-5.62,-4.03,27.46,1.02,8.73,1.94
168746,-6.60,-4.50,25.07,1.05,8.73,1.93
168781,-4.95,-3.64,22.13,0.93,8.73,1.87
168816,-3.12,-2.97,21.26,0.90,8.73,1.72
168856,3.46,-0.10,20.72,0.96,8.73,1.62
168891,7.70,-2.16,21.35,1.15,8.73,1.56
168926,10.99,-2.39,23.45,1.23,8.73,1.64
168961,13.59,-4.24,26.36,1.28,8.73,1.75
168996,12.73,-5.57,28.58,1.31,8.73,1.80
169031,13.10,-5.65,31.48,1.33,8.73,1.86
169066,11.07,-9.26,34.44,1.28,8.73,1.88
169101,8.79,-6.22,38.40,1.25,8.73,1.85
169136,5.60,-7.33,38.79,1.23,8.73,1.71
169171,1.30,-8.15,37.68,1.36,8.73,1.69
169207,-1.07,-4.40,37.15,1.35,8.73,1.79
169241,-3.33,-7.47,32.90,1.40,8.73,1.89
169276,-7.01,-6.14,31.96,1.36,8.73,1.98
169311,-5.16,-5.69,29.33,1.27,8.73,2.12
169347,-4.24,-6.89,24.69,1.18,8.73,2.10
169381,-4.18,-2.86,22.28,0.97,8.73,1.97
169416,-0.51,-3.65,20.54,0.95,8.73,1.85
169451,1.56,-3.72,18.75,0.97,8.73,1.84
169486,6.77,-3.78,20.06,0.88,8.73,1.96
169521,9.90,-8.08,21.17,0.74,8.73,2.01
169556,11.56,-6.95,24.22,0.52,8.73,1.98
169591,12.28,-6.37,28.10,0.39,8.73,1.84
169626,14.28,-5.35,31.03,0.44,8.73,1.70
169661,11.71,-4.47,34.76,0.55,8.73,1.62
169696,8.90,-6.33,37.19,0.71,8.73,1.63
169731,6.04,-5.65,39.36,0.79,8.73,1.70
169766,2.43,-5.64,38.18,0.81,8.73,1.79
169801,-1.82,-8.46,37.86,0.79,8.73,1.83
169836,-3.35,-2.77,35.87,0.71,8.73,1.81
169871,-4.98,-4.51,31.83,0.66,8.73,1.75
169906,-5.80,-2.88,29.96,0.69,8.73,1.67
169941,-3.78,-0.19,27.12,0.77,8.73,1.59
169976,-4.70,-2.04,23.25,0.88,8.73,1.62
170011,-0.55,-1.15,21.52,1.03,8.73,1.59
170046,3.72,-1.37,20.36,1.11,8.73,1.52
170081,7.82,-1.64,20.89,1.18,8.73,1.55
170116,10.47,-2.47,20.72,1.27,8.73,1.62
170151,11.64,-3.36,22.93,1.27,8.73,1.70
170186,12.58,-5.59,25.63,1.28,8.73,1.79
170221,13.15,-6.21,28.77,1.07,8.73,1.80
170256,11.82,-8.30,33.48,1.00,8.73,1.81
170291,9.57,-6.00,37.31,1.05,8.73,1.77
170326,5.34,-5.89,38.34,1.01,8.73,1.82
170361,2.69,-7.69,39.09,0.92,8.73,2.01
170396,-0.21,-7.52,35.72,0.87,8.73,2.04
170431,-3.22,-5.72,35.69,0.69,8.73,2.06
170466,-5.89,-5.00,33.15,0.76,8.73,2.01
170501,-6.61,-3.92,30.06,0.84,8.73,1.95
170536,-5.48,-4.17,26.19,1.00,8.73,2.09
170571,-3.36,-7.74,22.29,1.14,8.73,2.27
170606,-0.92,-5.26,20.49,0.97,8.73,2.34
170641,3.44,-5.98,19.63,0.86,8.73,2.35
170676,7.76,-5.80,18.92,0.80,8.73,2.20
170711,9.96,-3.48,19.73,0.82,8.73,2.06
170747,11.45,-4.36,22.46,0.94,8.73,2.03
170781,11.13,-5.32,24.84,1.03,8.73,1.98
170816,12.45,-6.30,29.86,1.06,8.73,2.08
170851,12.33,-7.08,33.60,1.17,8.73,2.17
170891,9.85,-8.76,36.68,1.08,8.73,2.21
170926,4.65,-7.25,36.87,0.94,8.73,2.14
170961,3.16,-7.62,37.55,0.80,8.73,2.14
170996,-0.41,-5.83,36.55,0.85,8.73,2.03
171031,-4.09,-7.86,35.55,0.86,8.73,2.01
171066,-6.23,-4.75,33.30,0.88,8.73,1.98
171101,-5.36,-5.15,28.69,0.87,8.73,1.96
171136,-6.45,-5.78,24.30,0.87,8.73,1.93
171171,-4.38,-2.15,21.66,0.79,8.73,1.83
171206,-0.28,-2.95,19.93,0.82,8.73,1.72
171241,0.76,-2.12,19.73,0.87,8.73,1.71
171276,4.55,-2.85,18.88,0.90,8.73,1.72
171311,8.35,-3.69,19.14,0.83,8.73,1.84
171346,9.76,-5.59,21.80,0.73,8.73,1.92
171381,12.64,-4.34,26.67,0.84,8.73,1.88
171416,13.73,-3.71,30.57,0.95,8.73,1.84
171451,11.58,-6.60,33.26,1.05,8.73,1.97
171486,10.02,-6.90,35.55,1.08,8.73,1.96
171521,6.13,-7.15,37.86,0.97,8.73,1.84
171556,3.81,-7.50,39.21,1.02,8.73,1.79
171591,-0.13,-5.76,39.70,1.07,8.73,1.77
171626,-3.48,-7.35,36.16,1.10,8.73,1.78
171661,-4.96,-5.72,33.23,1.11,8.73,1.84
171696,-6.60,-4.03,29.77,1.01,8.73,1.85
171731,-7.10,-3.83,25.85,1.00,8.73,1.83
171766,-3.46,-3.21,22.67,0.95,8.73,1.82
171801,-3.76,-3.69,20.47,0.98,8.73,1.81
171836,1.37,-1.88,20.19,0.94,8.73,1.79
171871,5.55,-1.60,19.29,0.94,8.73,1.76
171906,8.17,-2.32,19.14,0.99,8.73,1.74
171941,10.60,-4.20,21.43,1.02,8.73,1.76
171976,12.42,-3.96,24.95,1.03,8.73,1.81
172011,13.01,-5.41,28.35,1.02,8.73,1.82
172046,11.94,-7.38,31.09,1.01,8.73,1.82
172081,11.50,-6.37,35.31,0.99,8.73,1.78
172116,8.32,-7.31,37.25,1.00,8.73,1.68
172151,4.74,-6.27,38.47,1.07,8.73,1.61
172186,1.39,-6.86,37.62,1.10,8.73,1.71
172220,-1.19,-6.05,34.47,1.13,8.73,1.80
172255,-4.45,-5.04,34.16,1.12,8.73,1.83
172290,-5.07,-4.40,30.81,1.12,8.73,1.86
172325,-7.90,-3.09,27.37,1.18,8.73,1.96
172360,-4.46,-5.81,24.52,1.29,8.73,2.03
172396,-3.01,-4.19,21.67,1.11,8.73,2.03
172430,-0.82,-3.26,19.55,1.07,8.73,1.93
172465,2.48,-2.10,18.73,1.04,8.73,1.82
172500,5.62,-1.55,17.85,1.10,8.73,1.74
172535,9.03,-1.74,19.55,1.11,8.73,1.78
172570,11.07,-6.09,22.25,1.12,8.73,1.85
172605,12.43,-5.16,26.08,1.05,8.73,1.87
172640,12.95,-6.32,29.59,1.00,8.73,1.89
172675,11.88,-8.10,32.46,0.94,8.73,1.80
172710,9.49,-6.34,35.14,0.83,8.73,1.64
172745,6.45,-4.65,36.41,0.88,8.73,1.53
172780,3.65,-6.18,37.70,1.02,8.73,1.54
172815,-0.40,-6.36,37.72,1.20,8.73,1.53
172849,-3.72,-5.02,36.64,1.22,8.73,1.58
172884,-5.45,-6.66,34.09,1.22,8.73,1.73
172924,-5.99,-5.13,29.39,1.11,8.73,1.79
172959,-4.92,-2.48,25.79,1.07,8.73,1.73
172994,-5.53,-2.72,22.75,1.00,8.73,1.69
173029,-0.81,-1.02,20.96,1.09,8.73,1.62
173064,3.53,-0.69,20.50,1.12,8.73,1.49
173099,5.87,0.35,18.68,1.26,8.73,1.49
173133,9.08,-1.32,20.65,1.39,8.73,1.56
173168,11.33,-5.09,22.53,1.43,8.73,1.67
173203,12.95,-4.17,25.07,1.34,8.73,1.79
173238,11.97,-6.04,27.90,1.22,8.73,1.88
173273,12.15,-6.22,31.29,1.17,8.73,1.90
173308,9.87,-8.27,34.20,1.06,8.73,1.89
173344,8.11,-6.97,37.27,1.04,8.73,1.73
173378,4.24,-6.83,38.60,1.04,8.73,1.60
173412,0.60,-5.72,38.77,1.15,8.73,1.58
173447,-3.38,-6.93,38.05,1.13,8.73,1.69
173482,-4.81,-7.39,34.38,1.14,8.73,1.83
173517,-4.81,-4.92,29.55,0.89,8.73,1.83
173552,-7.52,-3.13,27.94,0.72,8.73,1.78
173587,-4.81,-3.00,25.38,0.77,8.73,1.67
173622,-3.11,-0.19,21.84,0.82,8.73,1.64
173657,1.85,-2.93,20.26,0.94,8.73,1.73
173692,5.52,-4.27,19.84,0.94,8.73,1.80
173726,8.14,-4.38,19.61,0.90,8.73,1.82
173761,11.30,-3.27,21.48,0.87,8.73,1.81
173796,12.56,-6.20,22.74,0.85,8.73,1.81
173831,12.19,-5.93,25.83,0.75,8.73,1.76
173866,12.04,-6.95,28.16,0.82,8.73,1.71
173901,10.91,-3.96,33.64,0.76,8.73,1.58
173936,9.08,-6.91,36.79,0.85,8.73,1.64
173971,5.86,-7.27,37.28,0.95,8.73,1.80
174006,2.15,-6.28,38.38,0.93,8.73,1.91
174041,-0.64,-7.47,35.69,0.87,8.73,1.90
174076,-3.90,-5.40,35.10,0.71,8.73,1.92
174111,-5.01,-4.80,31.83,0.70,8.73,1.91
174146,-6.86,-3.75,28.72,0.69,8.73,1.84
174181,-6.47,-3.67,24.88,0.72,8.73,1.82
174216,-5.63,-0.96,21.11,0.81,8.73,1.82
174251,-0.27,-4.12,18.93,0.82,8.73,1.88
174286,3.21,-5.43,17.13,0.79,8.73,1.94
174321,3.52,-4.22,17.57,0.74,8.73,2.03
174356,8.18,-3.95,19.40,0.75,8.73,1.95
174391,10.20,-4.90,21.50,0.63,8.73,1.92
174426,11.68,-3.98,24.98,0.74,8.73,1.88
174461,13.30,-4.70,29.75,0.82,8.73,1.82
174496,12.40,-7.34,33.44,0.91,8.73,1.87
174531,9.89,-4.93,35.70,0.93,8.73,1.84
174566,6.46,-6.79,36.75,0.92,8.73,1.79
174601,3.67,-6.70,37.63,0.94,8.73,1.76
174636,0.39,-6.29,37.50,0.96,8.73,1.78
174671,-3.23,-4.63,36.47,1.12,8.73,1.72
174706,-5.27,-4.99,33.02,1.08,8.73,1.75
174741,-6.49,-6.13,29.67,1.08,8.73,1.83
174776,-7.00,-3.30,26.65,1.00,8.73,1.81
174811,-4.64,-2.89,22.78,1.02,8.73,1.79
174846,-3.59,-2.96,20.41,0.94,8.73,1.75
174881,-0.12,-3.17,18.67,0.97,8.73,1.81
174916,4.68,-2.39,18.77,0.95,8.73,1.88
174956,7.08,-4.68,18.79,0.91,8.73,1.90
174991,9.44,-7.27,20.96,0.77,8.73,1.97
175027,12.28,-4.26,24.14,0.65,8.73,1.93
175061,13.03,-5.94,27.62,0.69,8.73,1.89
175096,12.15,-6.68,31.20,0.73,8.73,1.81
175131,11.57,-5.98,34.78,0.78,8.73,1.83
175166,8.66,-6.29,37.07,0.88,8.73,1.88
175201,4.78,-6.62,38.47,0.83,8.73,1.93
175236,1.40,-7.97,37.55,0.74,8.73,2.00
175271,-1.53,-5.19,34.39,0.62,8.73,2.00
175306,-3.30,-3.73,32.68,0.56,8.73,1.90
175341,-7.66,-3.27,32.62,0.62,8.73,1.78
175377,-8.28,-2.92,28.65,0.74,8.73,1.75
175411,-4.93,-3.15,25.28,0.89,8.73,1.69
175446,-2.34,-1.47,21.52,0.85,8.73,1.60
175481,-0.75,-1.70,19.58,0.93,8.73,1.54
175516,3.03,0.07,19.65,1.03,8.73,1.39
175551,6.61,-0.18,19.13,1.21,8.73,1.35
175586,8.55,-1.52,19.52,1.24,8.73,1.49
175621,10.05,-5.30,22.07,1.20,8.73,1.63
175656,12.52,-5.37,26.49,1.10,8.73,1.70
175691,13.75,-5.03,30.91,1.05,8.73,1.72
175726,12.19,-7.34,33.39,1.06,8.73,1.74
175761,9.37,-5.43,35.21,1.06,8.73,1.72
175796,6.34,-6.37,35.64,1.09,8.73,1.72
175832,2.71,-6.05,36.74,1.13,8.73,1.73
175866,-0.45,-5.48,37.11,1.26,8.73,1.68
175901,-3.43,-6.20,36.01,1.33,8.73,1.79
175936,-4.87,-6.67,32.45,1.53,8.73,1.88
175971,-6.81,-6.99,28.39,1.54,8.73,2.03
176006,-6.20,-7.41,25.30,1.40,8.73,2.20
176041,-4.40,-6.82,21.56,1.29,8.73,2.28
176076,-1.63,-5.80,19.42,1.11,8.73,2.23
176111,2.34,-2.61,18.82,1.01,8.73,2.05
176146,5.12,-1.89,18.66,0.98,8.73,1.91
176181,7.75,-2.86,19.24,1.04,8.73,1.84
176216,11.07,-5.46,20.89,0.95,8.73,1.88
176251,12.77,-6.27,24.52,0.89,8.73,1.89
176286,13.53,-5.86,27.67,0.76,8.73,1.81
176322,12.64,-5.99,30.21,0.74,8.73,1.73
176356,11.84,-6.42,33.02,0.78,8.73,1.71
176392,8.84,-4.94,36.17,0.91,8.73,1.80
176426,4.86,-6.42,37.46,0.93,8.73,1.81
176461,1.58,-6.85,37.21,0.86,8.73,1.83
176496,-1.88,-4.27,36.82,0.78,8.73,1.83
176531,-5.12,-4.92,35.03,0.84,8.73,1.81
176567,-5.63,-2.84,31.15,0.90,8.73,1.76
176601,-5.51,-3.79,27.75,0.92,8.73,1.77
176636,-5.10,-1.67,24.40,0.98,8.73,1.76
176671,-3.17,-3.55,20.49,0.98,8.73,1.78
176706,0.28,-1.71,19.00,1.02,8.73,1.76
176741,2.73,-1.71,17.21,1.01,8.73,1.73
176776,6.08,-1.77,17.37,1.07,8.73,1.69
176811,8.48,-2.88,18.33,1.11,8.73,1.74
176847,10.41,-3.94,21.64,1.12,8.73,1.82
176881,11.18,-3.88,23.80,1.05,8.73,1.86
176916,12.77,-6.74,28.39,1.01,8.73,1.86
176951,12.52,-5.69,32.63,0.99,8.73,1.90
176991,9.12,-6.35,34.96,0.99,8.73,1.91
177026,6.22,-6.96,36.08,1.02,8.73,1.87
177061,3.07,-5.84,37.38,1.03,8.73,1.84
177096,-0.17,-6.55,36.65,1.05,8.73,1.84
177131,-3.70,-5.98,35.80,1.06,8.73,1.85
177167,-4.75,-4.80,32.63,1.18,8.73,1.88
177201,-6.13,-5.00,28.56,1.26,8.73,1.94
177236,-6.47,-7.22,24.29,1.30,8.73,2.08
177272,-4.60,-5.87,20.97,1.25,8.73,2.22
177307,-2.87,-5.71,18.36,1.15,8.73,2.24
177342,1.38,-3.70,17.18,1.00,8.73,2.09
177377,3.99,-3.36,16.48,0.95,8.73,1.94
177411,4.88,-1.53,18.56,0.96,8.73,1.93
177446,8.90,-2.90,19.82,1.13,8.73,1.89
177482,13.01,-3.45,22.69,1.09,8.73,1.94
177516,12.16,-4.99,27.04,1.13,8.73,2.06
177551,13.06,-4.76,30.45,1.18,8.73,2.19
177586,11.58,-7.21,33.16,1.22,8.73,2.37
177621,8.48,-7.26,36.55,1.09,8.73,2.51
177656,6.40,-8.89,37.04,0.91,8.73,2.54
177691,1.42,-7.58,37.30,0.78,8.73,2.31
177726,-1.18,-8.29,36.44,0.85,8.73,2.05
177761,-4.08,-3.17,35.35,1.03,8.73,1.93
177796,-5.49,-5.25,30.43,1.25,8.73,1.92
177832,-4.37,-6.04,25.41,1.37,8.73,1.99
177866,-4.65,-6.30,22.12,1.32,8.73,2.09
177901,-5.72,-5.36,20.40,1.18,8.73,2.10
177936,-1.90,-5.11,18.39,1.06,8.73,2.06
177971,1.26,-2.57,17.14,1.00,8.73,1.99
178006,4.55,-2.95,17.14,1.05,8.73,1.84
178041,8.40,-2.89,18.26,1.04,8.73,1.84
178076,10.92,-3.21,21.34,1.14,8.73,1.88
178111,12.92,-4.44,23.95,1.21,8.73,1.91
178146,12.17,-5.62,27.00,1.23,8.73,2.01
178181,12.50,-6.61,30.66,1.22,8.73,2.13
178216,10.66,-8.26,33.78,1.15,8.73,2.24
178251,8.30,-7.59,35.98,1.02,8.73,2.31
178286,4.64,-7.54,37.18,0.90,8.73,2.24
178322,0.48,-6.85,37.72,0.90,8.73,2.07
178356,-1.77,-6.77,33.97,0.95,8.73,1.94
178392,-4.04,-4.92,31.58,0.97,8.73,1.88
178426,-5.69,-5.59,28.97,0.99,8.73,1.91
178461,-6.22,-5.27,25.48,0.86,8.73,1.88
178496,-7.00,-3.10,23.79,0.84,8.73,1.81
178531,-3.27,-1.54,20.25,0.79,8.73,1.73
178566,-1.42,-2.09,17.76,0.88,8.73,1.64
178601,1.70,-1.50,18.22,0.93,8.73,1.60
178636,6.33,-1.85,17.34,1.00,8.73,1.55
178671,8.64,-3.36,17.55,1.05,8.73,1.55
178706,10.20,-3.47,20.46,1.08,8.73,1.61
178741,11.85,-5.20,23.40,1.01,8.73,1.67
178776,13.21,-5.69,26.79,0.90,8.73,1.64
178811,11.79,-7.43,30.86,0.86,8.73,1.61
178847,10.16,-4.90,34.13,0.86,8.73,1.51
178881,7.27,-6.26,35.41,0.94,8.73,1.45
178916,3.73,-5.84,35.69,0.99,8.73,1.50
178951,0.72,-5.32,35.55,0.98,8.73,1.60
178986,-2.30,-7.65,33.96,0.86,8.73,1.79
179026,-5.37,-5.28,32.13,0.86,8.73,1.81
179061,-6.55,-4.38,28.60,0.77,8.73,1.76
179096,-7.34,-3.90,25.38,0.73,8.73,1.73
179131,-4.58,-1.43,22.29,0.76,8.73,1.69
179166,-3.45,-2.58,18.82,0.82,8.73,1.65
179201,-0.18,-1.87,17.74,0.86,8.73,1.66
179236,2.06,-3.07,17.02,0.86,8.73,1.74
179271,5.23,-3.49,16.76,0.81,8.73,1.76
179306,8.87,-3.60,17.69,0.84,8.73,1.76
179341,11.26,-5.69,21.39,0.78,8.73,1.71
179376,12.87,-3.98,25.09,0.81,8.73,1.66
179411,13.57,-5.90,27.73,0.87,8.73,1.63
179446,12.13,-4.51,30.78,0.96,8.73,1.63
179481,9.52,-5.74,33.00,1.05,8.73,1.68
179516,6.47,-5.69,34.41,1.01,8.73,1.60
179551,3.60,-5.51,36.23,1.10,8.73,1.52
179586,0.18,-5.52,36.87,1.13,8.73,1.57
179621,-1.82,-5.02,34.06,1.19,8.73,1.69
179656,-5.45,-5.06,32.63,1.18,8.73,1.77
179691,-6.19,-4.92,28.86,1.11,8.73,1.81
179726,-6.30,-4.21,25.05,1.05,8.73,1.87
179761,-5.08,-3.25,22.52,1.04,8.73,1.91
179796,-2.97,-3.84,18.25,1.04,8.73,1.98
179832,-0.43,-5.00,16.38,0.96,8.73,2.07
179866,1.60,-5.51,16.08,0.86,8.73,2.15
179901,5.02,-4.21,16.10,0.76,8.73,2.12
179936,8.86,-4.27,18.06,0.74,8.73,2.04
179971,10.60,-5.60,21.05,0.70,8.73,1.97
180006,12.60,-4.83,24.23,0.73,8.73,1.89
180041,13.13,-5.52,26.83,0.75,8.73,1.86
180076,11.52,-5.96,30.39,0.78,8.73,1.81
180111,8.91,-5.31,33.21,0.76,8.73,1.70
180146,6.46,-5.91,35.43,0.77,8.73,1.61
180181,3.22,-6.02,36.46,0.82,8.73,1.63
180216,0.12,-5.38,36.86,0.87,8.73,1.65
180251,-3.22,-5.02,35.27,0.93,8.73,1.64
180286,-4.93,-4.06,32.22,0.84,8.73,1.64
180322,-5.62,-2.67,28.58,0.86,8.73,1.61
180356,-7.00,-2.85,25.63,0.84,8.73,1.57
180391,-4.59,-0.76,22.59,0.90,8.73,1.53
180426,-3.88,-1.13,18.58,0.95,8.73,1.44
180461,0.15,0.67,17.50,1.00,8.73,1.36
180496,4.42,1.88,17.74,1.15,8.73,1.26
180531,5.73,0.96,17.34,1.34,8.73,1.24
180566,8.16,-1.00,18.48,1.46,8.73,1.43
180601,11.15,-4.98,20.70,1.38,8.73,1.62
180637,12.06,-4.74,23.02,1.21,8.73,1.77
180671,11.50,-6.74,26.71,1.11,8.73,1.83
180706,12.16,-6.42,30.93,1.02,8.73,1.78
180741,8.95,-7.49,33.44,0.98,8.73,1.71
180776,5.66,-6.84,35.13,0.97,8.73,1.67
180811,3.40,-6.80,36.97,0.98,8.73,1.74
180846,-0.02,-6.61,35.97,0.95,8.73,1.80
180881,-2.90,-6.83,33.56,0.95,8.73,1.83
180916,-5.33,-4.92,31.65,0.83,8.73,1.81
180951,-5.73,-4.25,27.75,0.76,8.73,1.78
180986,-6.68,-3.45,24.69,0.72,8.73,1.72
181021,-3.49,-1.82,21.40,0.76,8.73,1.64
181061,-3.75,-1.75,17.47,0.80,8.73,1.61
181096,-1.78,-0.62,15.80,0.87,8.73,1.61
181131,1.38,-2.56,17.12,0.89,8.73,1.55
181166,5.07,-3.05,17.02,0.91,8.73,1.61
181201,9.13,-4.79,18.33,0.86,8.73,1.66
181236,11.75,-4.58,21.52,0.86,8.73,1.65
181272,12.24,-6.32,24.67,0.78,8.73,1.59
181306,12.87,-5.68,28.73,0.71,8.73,1.46
181341,11.74,-4.81,31.44,0.75,8.73,1.39
181377,8.52,-3.72,33.52,0.90,8.73,1.39
181411,5.80,-5.90,35.67,1.03,8.73,1.39
181446,3.22,-5.18,37.34,1.19,8.73,1.43
181481,-0.50,-6.26,34.93,1.28,8.73,1.51
181516,-3.62,-5.45,32.90,1.27,8.73,1.63
181551,-5.43,-5.74,30.03,1.18,8.73,1.76
181586,-5.36,-4.85,26.02,1.00,8.73,1.82
181621,-7.95,-2.70,25.31,0.98,8.73,1.81
181656,-6.27,-3.92,21.10,0.95,8.73,1.82
181691,-5.31,-2.49,19.05,0.94,8.73,1.86
181726,-2.19,-3.93,18.35,0.97,8.73,1.98
181761,1.88,-4.28,17.11,0.90,8.73,2.02
181796,5.73,-3.47,17.08,0.88,8.73,2.00
181832,9.90,-4.89,19.52,0.80,8.73,1.94
181866,12.75,-3.87,22.70,0.86,8.73,1.88
181901,13.37,-5.63,25.66,0.79,8.73,1.81
181936,12.93,-6.14,28.82,0.71,8.73,1.71
181971,11.71,-6.37,31.80,0.64,8.73,1.55
182006,9.22,-5.39,34.62,0.66,8.73,1.30
182041,6.19,-3.88,35.58,0.76,8.73,1.13
182076,2.77,-4.94,36.58,0.96,8.73,1.16
182111,-0.52,-4.54,35.20,0.99,8.73,1.28
182146,-2.98,-6.06,33.22,0.89,8.73,1.46
182181,-5.00,-4.30,30.57,0.83,8.73,1.53
182216,-5.68,-2.78,26.89,0.81,8.73,1.48
182251,-6.71,-2.30,23.99,0.70,8.73,1.35
182287,-5.02,0.76,21.46,0.75,8.73,1.30
182322,-3.23,1.09,18.68,0.92,8.73,1.31
182356,0.73,-0.54,17.83,1.06,8.73,1.42
182391,2.95,-2.60,17.29,1.10,8.73,1.57
182426,5.61,-1.69,16.50,1.16,8.73,1.67
182461,8.87,-3.33,17.14,1.17,8.73,1.74
182496,10.88,-3.20,20.86,1.24,8.73,1.82
182531,12.10,-4.70,25.24,1.30,8.73,1.92
182566,13.70,-6.31,28.27,1.21,8.73,1.99
182601,11.75,-8.44,31.26,1.11,8.73,2.03
182636,8.42,-6.84,33.11,1.00,8.73,2.05
182672,6.29,-7.72,34.14,0.90,8.73,2.05
182706,3.88,-6.05,35.37,0.84,8.73,2.00
182741,-0.34,-6.83,35.75,0.70,8.73,2.05
182776,-3.94,-7.14,34.19,0.58,8.73,2.04
182811,-5.26,-4.87,31.64,0.36,8.73,1.94
182846,-6.19,-2.74,28.42,0.33,8.73,1.78
182881,-6.93,-2.48,25.35,0.45,8.73,1.65
182916,-5.19,-1.97,22.46,0.57,8.73,1.62
182951,-3.15,-1.03,20.12,0.71,8.73,1.65
182986,-0.65,-3.32,17.13,0.78,8.73,1.74
183021,3.79,-4.16,18.52,0.76,8.73,1.87
183056,7.50,-4.14,19.39,0.77,8.73,1.83
183096,11.61,-3.34,20.40,0.87,8.73,1.75
183131,13.53,-4.62,21.81,0.92,8.73,1.70
183166,13.42,-3.56,24.33,0.96,8.73,1.72
183201,11.51,-5.16,26.62,1.13,8.73,1.85
183236,10.58,-6.47,30.53,1.15,8.73,1.92
183271,9.78,-7.05,33.84,1.09,8.73,1.88
183306,5.44,-7.54,35.92,1.02,8.73,1.97
183342,2.22,-7.75,36.78,1.04,8.73,2.01
183377,0.47,-6.45,34.31,1.03,8.73,1.97
183411,-3.40,-6.13,33.98,1.11,8.73,1.98
183446,-4.54,-6.38,30.87,1.14,8.73,2.01
183481,-6.03,-5.19,27.43,1.09,8.73,2.04
183517,-5.37,-6.70,23.32,1.07,8.73,2.11
183552,-4.59,-4.50,20.07,1.01,8.73,2.18
183586,-3.58,-6.62,17.32,0.95,8.73,2.27
183621,1.54,-4.28,17.42,0.83,8.73,2.16
183656,5.04,-3.07,16.18,0.75,8.73,1.99
183691,7.08,-2.17,17.65,0.76,8.73,1.82
183726,9.87,-1.29,20.14,0.95,8.73,1.65
183761,12.85,-4.33,21.33,0.99,8.73,1.63
183796,12.58,-5.16,24.96,0.96,8.73,1.62
183832,11.31,-2.63,28.06,0.88,8.73,1.66
183866,10.66,-7.22,32.28,0.96,8.73,1.58
183901,9.43,-4.99,36.02,0.93,8.73,1.42
183936,5.42,-5.02,35.73,1.05,8.73,1.34
183971,2.10,-4.66,37.47,1.27,8.73,1.31
184006,-0.35,-4.04,36.42,1.49,8.73,1.36
184041,-4.16,-5.49,34.20,1.66,8.73,1.48
184076,-5.22,-5.32,31.21,1.89,8.73,1.66
184111,-5.49,-7.03,28.01,1.97,8.73,1.94
184146,-7.84,-8.65,23.25,1.85,8.73,2.19
184181,-4.61,-6.66,20.32,1.59,8.73,2.27
184216,-0.72,-4.56,18.69,1.33,8.73,2.11
184251,1.38,-3.45,18.42,1.25,8.73,1.97
184286,5.48,-0.51,18.26,1.30,8.73,1.84
184322,8.52,-1.53,18.51,1.46,8.73,1.77
184356,11.37,-2.30,19.09,1.42,8.73,1.90
184392,10.38,-4.24,22.18,1.37,8.73,1.98
184426,12.83,-8.17,24.74,1.25,8.73,2.08
184461,13.60,-6.87,29.21,1.07,8.73,2.07
184496,11.86,-8.50,34.20,0.80,8.73,1.98
184531,8.57,-7.37,36.08,0.77,8.73,1.72
184566,5.39,-5.02,35.64,0.74,8.73,1.50
184601,1.31,-5.63,36.91,0.82,8.73,1.54
184636,-1.43,-5.78,34.88,0.78,8.73,1.60
184671,-4.93,-5.94,33.83,0.66,8.73,1.70
184706,-4.36,-3.58,29.56,0.46,8.73,1.65
184741,-4.54,-1.92,26.20,0.33,8.73,1.44
184776,-5.24,1.63,22.95,0.26,8.73,1.14
184811,-4.26,2.87,19.42,0.46,8.73,0.98
184847,-0.47,1.17,17.11,0.73,8.73,1.01
184881,1.71,-0.61,16.35,0.93,8.73,1.17
184916,0.52,-0.93,17.21,1.03,8.73,1.48
184951,6.41,-5.88,16.51,1.05,8.73,1.59
184986,10.31,-2.36,20.95,1.04,8.73,1.71
185021,14.66,-3.29,24.33,1.09,8.73,1.72
185056,13.41,-4.84,26.36,1.22,8.73,1.83
185091,11.86,-7.19,28.22,1.29,8.73,1.95
185131,9.67,-8.44,30.71,1.16,8.73,2.00
185166,8.20,-8.02,34.63,1.04,8.73,1.95
185201,4.69,-7.82,38.41,1.04,8.73,1.87
185236,1.77,-6.79,33.26,1.06,8.73,1.90
185271,-2.20,-6.74,31.89,1.09,8.73,1.90
185306,-5.62,-4.86,33.27,1.16,8.73,1.86
185342,-6.46,-6.05,29.47,1.16,8.73,1.83
185376,-7.81,-5.07,26.59,1.09,8.73,1.86
185411,-6.01,-7.92,23.31,1.11,8.73,2.03
185447,-7.73,-3.56,20.21,1.07,8.73,2.14
185481,-1.65,-6.56,18.34,1.16,8.73,2.38
185516,5.33,-9.67,16.33,0.96,8.73,2.44
185551,9.14,-4.54,15.54,0.82,8.73,2.20
185586,9.11,-0.26,16.30,0.98,8.73,1.84
185621,8.19,-0.71,19.52,1.48,8.73,1.60
185656,10.70,-4.19,21.47,1.52,8.73,1.81
185691,13.61,-5.83,28.26,1.39,8.73,2.01
185726,12.68,-8.27,30.01,1.31,8.73,2.04
185761,11.77,-9.15,31.88,0.98,8.73,1.82
185796,7.94,-7.72,33.80,0.89,8.73,1.48
185832,5.67,-5.52,35.47,0.96,8.73,1.32
185866,1.74,-5.53,36.40,0.99,8.73,1.42
185902,-0.74,-6.90,32.68,0.94,8.73,1.59
185936,-5.33,-5.84,35.24,0.72,8.73,1.67
185971,-5.21,-3.37,32.07,0.73,8.73,1.61
186006,-4.34,-5.01,25.77,0.69,8.73,1.56
186041,-6.65,-1.59,24.10,0.51,8.73,1.41
186076,-4.23,0.81,20.13,0.51,8.73,1.26
186111,1.65,3.36,18.02,0.64,8.73,0.93
186146,3.47,1.74,15.88,0.92,8.73,0.97
186181,4.81,-2.09,14.89,1.07,8.73,1.33
186216,5.37,-6.08,15.45,0.99,8.73,1.67
186251,8.59,-6.95,18.62,0.87,8.73,1.82
186286,8.53,-0.27,22.12,0.99,8.73,1.88
186321,15.49,0.56,27.98,1.42,8.73,2.01
186356,12.05,-4.85,31.63,1.66,8.73,2.35
186391,13.04,-9.17,32.43,1.61,8.73,2.68
186426,8.89,-10.64,31.91,1.35,8.73,2.98
186461,4.58,-11.46,33.38,0.98,8.73,2.83
186496,3.04,-8.94,37.28,0.71,8.73,2.48
186531,-1.33,-8.26,36.48,0.70,8.73,2.21
186566,-3.75,-8.40,34.43,0.64,8.73,2.10
186601,-5.52,-4.98,31.88,0.62,8.73,1.98
186636,-5.22,-5.89,25.75,0.72,8.73,1.95
186671,-5.59,-3.23,23.25,0.99,8.73,1.99
186706,-4.57,-5.72,19.50,1.17,8.73,2.15
186741,0.58,-8.16,16.36,1.14,8.73,2.21
186776,3.94,-5.34,14.47,1.03,8.73,2.02
186811,4.95,1.30,14.95,1.11,8.73,1.59
186847,7.90,5.23,15.92,1.59,8.73,1.22
186881,8.88,1.10,16.38,2.11,8.73,1.20
186916,7.47,-4.66,17.01,2.35,8.73,1.44
186951,11.33,-5.41,22.65,2.23,8.73,1.90
186986,12.38,-7.15,29.47,1.85,8.73,2.30
187021,12.98,-12.83,32.72,1.55,8.73,2.50
187056,9.27,-10.22,33.24,1.15,8.73,2.36
187091,3.88,-9.77,33.59,0.96,8.73,2.27
187127,2.93,-9.81,35.70,0.73,8.73,2.41
187166,-1.48,-8.18,33.80,0.49,8.73,2.36
187201,-4.29,-7.74,33.17,0.25,8.73,2.22
187236,-4.27,-4.26,29.06,0.07,8.73,1.96
187271,-6.73,-5.55,24.95,0.03,8.73,1.69
187306,-7.38,0.05,24.34,0.01,8.73,1.39
187342,-6.18,-0.35,20.02,0.32,8.73,1.25
187377,-3.90,1.39,17.38,0.53,8.73,1.06
187411,0.18,3.30,19.69,0.83,8.73,0.94
187446,4.77,4.93,17.21,1.25,8.73,0.73
187481,7.57,4.57,17.76,1.85,8.73,0.66
187516,12.14,0.94,22.72,2.15,8.73,0.92
187551,13.49,-5.33,23.20,2.18,8.73,1.47
187586,13.59,-10.60,27.50,2.05,8.73,1.81
187621,12.27,-7.84,33.04,1.80,8.73,2.09
187656,10.63,-8.77,35.68,1.46,8.73,2.18
187691,5.71,-12.31,36.94,1.39,8.73,2.47
187726,3.16,-10.54,37.78,1.09,8.73,2.62
187761,-0.68,-9.52,35.81,0.70,8.73,2.65
187796,-4.06,-9.66,34.34,0.48,8.73,2.49
187832,-5.71,-5.07,31.20,0.38,8.73,2.25
187866,-4.74,-4.27,26.01,0.60,8.73,2.05
187901,-5.44,-7.03,21.55,0.67,8.73,1.92
187936,-4.76,-5.35,18.55,0.63,8.73,1.83
187971,-5.49,-4.51,16.89,0.50,8.73,1.60
188006,-4.19,-2.09,15.32,0.53,8.73,1.36
188041,6.48,-0.02,16.67,0.63,8.73,1.16
188076,9.02,3.20,16.15,0.96,8.73,1.05
188111,9.39,-1.34,17.93,1.13,8.73,1.13
188146,10.53,-5.16,18.51,1.04,8.73,1.34
188181,11.65,-6.12,20.38,0.95,8.73,1.41
188216,12.43,-7.09,23.80,0.92,8.73,1.41
188251,11.74,-6.42,27.61,1.01,8.73,1.46
188286,9.06,-5.91,30.14,1.13,8.73,1.62
188322,7.02,-6.81,31.65,1.16,8.73,1.90
188356,3.57,-8.68,32.16,1.02,8.73,2.25
188391,0.75,-9.57,31.84,0.75,8.73,2.42
188426,-1.49,-7.75,29.68,0.58,8.73,2.35
188461,-4.21,-5.79,28.90,0.53,8.73,2.15
188496,-9.05,-3.67,33.50,0.72,8.73,1.96
188531,-8.31,-6.49,25.87,0.75,8.73,1.94
188566,-9.33,-5.29,23.53,0.76,8.73,1.92
188601,-5.24,-5.16,17.52,0.64,8.73,1.79
188636,-1.72,-1.44,14.52,0.52,8.73,1.52
188671,1.24,-0.28,13.30,0.58,8.73,1.36
188706,3.04,-1.38,12.82,0.69,8.73,1.31
188741,5.39,-1.47,13.03,0.77,8.73,1.36
188776,8.21,-1.72,14.66,0.87,8.73,1.37
188811,10.28,-2.23,18.10,0.96,8.73,1.39
188847,11.84,-3.49,20.87,1.02,8.73,1.41
188881,12.51,-4.73,23.42,1.07,8.73,1.43
188916,11.27,-5.69,26.00,1.11,8.73,1.46
188951,11.13,-6.88,28.88,1.02,8.73,1.39
188986,8.19,-2.65,30.65,0.99,8.73,1.27
189021,4.46,-5.25,31.47,1.24,8.73,1.08
189056,1.78,-0.84,33.83,1.44,8.73,0.76
189091,-0.72,-6.30,31.12,1.80,8.73,0.78
189126,-4.40,-8.24,31.12,1.97,8.73,1.14
189161,-5.52,-8.08,28.43,1.84,8.73,1.48
189201,-6.68,-8.14,23.58,1.46,8.73,1.71
189236,-7.91,-4.58,21.54,1.08,8.73,1.70
189271,-4.23,-1.86,19.19,0.91,8.73,1.59
189306,-4.13,-0.21,15.69,0.83,8.73,1.39
189342,-0.44,1.95,15.25,0.94,8.73,1.30
189376,1.67,0.75,14.58,1.05,8.73,1.27
189411,5.00,-0.83,13.78,1.17,8.73,1.29
189446,8.19,-1.85,14.59,1.23,8.73,1.39
189481,10.49,-1.78,17.67,1.24,8.73,1.50
189552,12.61,-5.97,23.00,1.02,8.73,1.64
189586,11.13,-6.59,26.14,0.88,8.73,1.62
189621,10.87,-7.58,29.23,0.82,8.73,1.53
189656,8.49,-4.66,32.44,0.88,8.73,1.43
189691,5.47,-5.32,33.31,0.97,8.73,1.45
189726,2.12,-5.77,34.47,0.95,8.73,1.58
189761,-0.74,-4.78,33.72,1.01,8.73,1.57
189797,-3.63,-5.32,31.76,1.02,8.73,1.64
189831,-5.43,-4.90,28.65,0.95,8.73,1.70
189867,-6.85,-3.62,25.74,0.87,8.73,1.70
189901,-6.76,-3.34,22.53,0.83,8.73,1.66
189936,-4.43,-2.15,19.90,0.79,8.73,1.58
189971,-3.37,0.11,16.74,0.77,8.73,1.47
190006,1.52,-1.09,15.70,0.85,8.73,1.44
190041,2.92,-2.71,13.96,0.90,8.73,1.52
190076,3.97,-4.47,13.22,0.82,8.73,1.75
190111,7.29,-5.08,14.74,0.64,8.73,1.87
190146,11.76,-5.58,18.22,0.51,8.73,1.88
190181,10.36,-5.49,19.38,0.51,8.73,1.73
190217,13.14,-3.36,25.30,0.48,8.73,1.64
190251,13.01,-5.53,27.97,0.62,8.73,1.55
190286,9.51,-6.51,31.36,0.66,8.73,1.53
190321,8.26,-5.31,35.81,0.72,8.73,1.43
190356,4.26,-5.26,35.02,0.75,8.73,1.45
190391,0.96,-5.65,33.30,0.87,8.73,1.56
190426,-1.97,-5.45,33.59,0.91,8.73,1.65
190461,-4.52,-3.50,31.83,0.89,8.73,1.69
190496,-6.76,-3.71,29.13,0.83,8.73,1.65
190531,-6.11,-2.28,25.31,0.80,8.73,1.60
190566,-7.88,-2.29,22.23,0.82,8.73,1.54
190601,-5.71,-1.30,19.33,0.85,8.73,1.51
190636,-1.78,-1.46,16.98,0.91,8.73,1.51
190671,2.79,-2.01,14.41,0.96,8.73,1.56
190706,6.40,-1.20,14.74,1.00,8.73,1.55
190741,7.00,-3.18,12.63,1.08,8.73,1.61
190776,5.84,-0.51,20.43,1.20,8.73,1.80
190811,12.88,-3.12,20.76,1.39,8.73,1.88
190847,12.57,-2.59,25.04,1.61,8.73,2.04
190881,12.42,-4.64,28.81,1.73,8.73,2.32
190916,10.46,-9.12,29.68,1.60,8.73,2.53
190951,9.22,-9.67,31.96,1.30,8.73,2.53
190986,6.15,-7.96,33.08,1.05,8.73,2.33
191021,2.58,-6.94,34.92,0.93,8.73,2.04
191056,-0.92,-6.65,34.08,1.08,8.73,1.79
191091,-3.76,-5.54,31.43,1.23,8.73,1.72
191126,-5.66,-5.64,29.17,1.40,8.73,1.73
191161,-6.73,-4.89,25.81,1.61,8.73,1.85
191196,-8.47,-6.68,23.48,1.61,8.73,1.99
191236,-5.17,-7.56,19.50,1.31,8.73,2.09
191271,-4.37,-2.76,17.09,1.14,8.73,2.03
191306,-2.01,-2.40,16.40,1.06,8.73,1.81
191342,0.21,-1.80,15.23,1.06,8.73,1.66
191376,4.76,-1.93,16.23,1.15,8.73,1.62
191411,9.00,-0.42,17.86,1.34,8.73,1.60
191446,11.42,-1.97,20.79,1.59,8.73,1.60
191481,12.68,-2.99,23.40,1.67,8.73,1.75
191516,13.35,-7.59,25.91,1.59,8.73,1.89
191551,12.16,-7.53,28.72,1.41,8.73,1.97
191586,9.63,-8.48,31.65,1.25,8.73,2.02
191621,7.69,-7.04,33.38,1.09,8.73,1.87
191656,4.22,-6.88,34.56,1.09,8.73,1.76
191691,1.17,-6.39,35.32,1.14,8.73,1.73
191726,-1.99,-5.77,33.88,1.21,8.73,1.69
191761,-3.91,-5.65,30.25,1.27,8.73,1.69
191796,-5.97,-5.93,27.13,1.29,8.73,1.76
191832,-6.35,-5.70,23.57,1.19,8.73,1.83
191866,-5.37,-5.10,20.52,1.12,8.73,1.86
191901,-5.12,-3.99,16.36,1.01,8.73,1.82
191936,-1.38,-3.15,16.19,0.95,8.73,1.70
191971,0.32,1.21,14.12,1.00,8.73,1.49
192006,-2.18,1.92,15.15,1.20,8.73,1.49
192041,4.72,-1.56,17.99,1.42,8.73,1.43
192076,11.35,-2.36,20.66,1.61,8.73,1.51
192111,14.94,-4.30,22.55,1.50,8.73,1.73
192146,13.78,-6.07,24.69,1.38,8.73,1.87
192181,12.16,-8.40,26.76,1.16,8.73,1.90
192216,10.67,-6.53,29.44,1.03,8.73,1.86
192251,9.37,-6.68,31.63,0.99,8.73,1.92
192286,6.28,-7.67,33.25,0.89,8.73,1.97
192321,2.50,-7.63,33.87,0.79,8.73,2.03
192356,-1.10,-6.71,34.05,0.77,8.73,1.98
192391,-3.10,-5.51,31.01,0.82,8.73,1.83
192426,-5.71,-5.67,28.58,0.86,8.73,1.71
192461,-5.54,-3.85,25.03,0.83,8.73,1.62
192496,-7.47,-3.54,22.46,0.76,8.73,1.53
192531,-5.60,-1.06,20.23,0.80,8.73,1.46
192566,-4.81,-3.14,17.76,0.79,8.73,1.30
192602,-2.90,-0.04,15.73,0.86,8.73,1.18
192636,-0.05,2.03,15.86,1.04,8.73,1.13
192671,6.14,0.20,16.72,1.25,8.73,1.04
192706,9.02,0.90,15.38,1.43,8.73,1.08
192741,10.80,-0.98,18.62,1.61,8.73,1.28
192776,12.22,-5.11,20.97,1.63,8.73,1.52
192811,12.69,-7.43,24.25,1.45,8.73,1.68
192846,11.92,-8.05,27.36,1.25,8.73,1.76
192881,10.70,-9.80,30.62,1.05,8.73,1.70
192916,6.97,-7.02,33.34,0.98,8.73,1.55
192951,5.30,-6.59,33.88,1.05,8.73,1.53
192986,1.98,-6.64,34.20,1.06,8.73,1.63
193021,-0.99,-6.27,32.92,1.02,8.73,1.65
193056,-3.75,-6.91,30.78,0.95,8.73,1.69
193091,-6.01,-5.90,28.68,0.94,8.73,1.71
193126,-6.82,-6.04,25.17,0.85,8.73,1.71
193161,-9.25,-4.76,22.78,0.67,8.73,1.57
193196,-4.46,-0.29,21.15,0.57,8.73,1.37
193231,-3.39,1.44,16.96,0.59,8.73,1.02
193271,-2.46,3.03,16.52,0.87,8.73,0.80
193306,2.19,1.93,17.26,1.12,8.73,1.07
193342,7.99,-4.90,15.47,1.20,8.73,1.38
193376,10.25,-6.05,16.78,1.08,8.73,1.64
193411,8.81,-4.51,19.32,0.94,8.73,1.82
193446,11.64,-3.01,25.10,1.20,8.73,1.94
193481,13.79,-6.34,28.77,1.28,8.73,2.12
193516,12.69,-10.87,31.63,1.32,8.73,2.28
193551,8.13,-8.11,30.75,1.15,8.73,2.50
193586,4.45,-9.59,31.77,0.88,8.73,2.64
193621,3.14,-10.30,35.71,0.64,8.73,2.70
193656,-1.15,-9.40,35.68,0.31,8.73,2.57
193691,-2.83,-6.34,33.47,0.09,8.73,2.32
193726,-4.88,-6.26,30.28,0.03,8.73,2.00
193761,-6.89,-3.51,27.58,-0.05,8.73,1.68
193796,-8.16,-0.87,25.26,-0.09,8.73,1.34
193832,-5.89,2.87,22.67,0.07,8.73,1.00
193866,-5.30,4.27,19.39,0.37,8.73,0.61
193901,-1.92,6.84,18.68,0.78,8.73,0.29
193936,1.77,4.81,18.59,1.22,8.73,0.22
193971,4.34,3.85,19.69,1.51,8.73,0.68
194006,10.92,-6.62,26.18,1.44,8.73,1.40
194041,15.90,-9.01,30.18,1.37,8.73,1.63
194077,15.44,-7.61,31.21,1.30,8.73,1.68
194111,11.25,-8.09,32.12,1.24,8.73,1.75
194146,9.59,-9.45,34.85,1.27,8.73,1.84
194181,7.11,-9.22,36.79,1.22,8.73,1.89
194216,2.75,-10.01,35.89,1.14,8.73,2.00
194251,0.48,-8.72,35.08,1.00,8.73,2.10
194286,-2.97,-9.48,32.06,0.69,8.73,2.20
194322,-5.41,-7.69,30.66,0.33,8.73,2.15
194356,-5.37,-5.95,27.49,0.19,8.73,2.03
194391,-6.49,-3.60,24.09,0.16,8.73,1.81
194426,-5.32,-1.55,21.43,0.16,8.73,1.53
194461,-2.44,-1.41,17.46,0.31,8.73,1.39
194496,0.56,-0.29,15.61,0.49,8.73,1.35
194531,2.87,-2.63,15.50,0.60,8.73,1.37
194566,4.80,-3.30,15.80,0.67,8.73,1.46
194601,6.25,-1.89,17.47,0.76,8.73,1.56
194636,11.92,-4.42,21.70,0.85,8.73,1.58
194671,13.30,-4.45,25.87,0.98,8.73,1.58
194706,13.26,-4.28,27.18,1.13,8.73,1.66
194741,12.83,-4.98,28.93,1.30,8.73,1.90
194776,9.18,-7.17,31.43,1.32,8.73,2.21
194811,7.31,-9.15,33.22,1.18,8.73,2.47
194846,4.35,-9.49,35.11,0.96,8.73,2.60
194881,0.32,-9.62,35.07,0.73,8.73,2.58
194916,-2.38,-7.96,31.69,0.53,8.73,2.50
194951,-5.36,-5.67,31.89,0.47,8.73,2.29
194986,-5.68,-3.95,27.98,0.49,8.73,2.09
195021,-6.13,-4.18,23.31,0.54,8.73,1.93
195056,-4.07,-3.68,20.53,0.63,8.73,1.91
195091,-4.22,-4.74,17.09,0.80,8.73,2.04
195126,-4.74,-9.33,17.51,0.69,8.73,2.07
195161,-1.58,-7.88,16.68,0.54,8.73,2.24
195196,3.49,-7.52,16.65,0.39,8.73,2.19
195231,10.36,-4.53,18.00,0.42,8.73,1.93
195266,11.66,-4.97,19.83,0.47,8.73,1.75
195306,11.70,-4.03,22.01,0.53,8.73,1.60
195342,12.33,-4.65,24.72,0.67,8.73,1.52
195376,11.99,-4.63,28.72,0.83,8.73,1.52
195411,10.93,-6.13,32.11,0.97,8.73,1.60
195446,8.05,-6.57,34.50,0.99,8.73,1.62
195481,4.22,-6.26,34.06,0.98,8.73,1.70
195516,0.81,-7.32,33.19,0.91,8.73,1.87
195551,-1.82,-7.88,32.90,0.75,8.73,2.01
195586,-5.22,-6.54,32.18,0.59,8.73,2.02
195621,-6.26,-4.69,29.47,0.49,8.73,1.95
195656,-6.75,-0.93,27.56,0.55,8.73,1.83
195691,-6.26,-1.01,24.85,0.78,8.73,1.82
195726,-5.36,-3.68,20.36,0.93,8.73,1.95
195761,-1.14,-3.70,18.26,0.97,8.73,1.96
195796,1.60,-3.88,17.81,0.92,8.73,1.89
195831,4.58,-2.85,18.14,0.92,8.73,1.82
195866,7.80,-3.47,18.73,1.01,8.73,1.75
195901,10.52,-2.87,21.64,1.07,8.73,1.75
195937,12.22,-5.22,23.99,1.07,8.73,1.82
195971,12.84,-6.13,26.73,0.98,8.73,1.83
196006,12.37,-7.31,30.28,0.97,8.73,1.85
196041,11.25,-5.98,33.93,0.97,8.73,1.89
196076,8.34,-7.22,35.96,0.95,8.73,1.87
196111,4.46,-6.69,36.22,0.89,8.73,1.85
196146,1.37,-7.53,36.46,0.89,8.73,1.96
196181,-1.01,-3.98,34.81,0.99,8.73,1.82
196216,-5.01,-6.57,34.11,0.96,8.73,1.83
196251,-5.46,-5.23,32.08,0.94,8.73,1.86
196287,-7.52,-4.12,29.10,1.00,8.73,1.92
196322,-4.42,-4.01,25.19,1.01,8.73,1.88
196356,-2.85,-4.19,20.83,0.95,8.73,1.85
196391,-1.73,-2.76,18.41,0.97,8.73,1.83
196427,2.12,-2.48,18.55,0.95,8.73,1.75
196461,6.90,-2.33,17.54,1.02,8.73,1.71
196496,9.39,-1.48,18.73,1.12,8.73,1.71
196531,10.64,-3.86,22.08,1.23,8.73,1.78
196566,12.99,-4.75,24.72,1.28,8.73,1.84
196601,11.18,-4.27,26.99,1.28,8.73,1.97
196636,12.21,-5.89,32.38,1.41,8.73,2.18
196671,9.37,-7.84,34.24,1.41,8.73,2.43
196706,6.16,-7.63,35.84,1.19,8.73,2.56
196742,3.62,-8.64,38.64,0.96,8.73,2.55
196776,-0.19,-6.05,37.42,0.90,8.73,2.32
196812,-2.97,-7.43,35.20,1.00,8.73,2.17
196847,-4.46,-5.73,33.06,1.15,8.73,2.16
196881,-5.73,-6.32,29.54,1.25,8.73,2.24
196916,-7.18,-8.56,26.01,1.32,8.73,2.40
196951,-6.46,-7.53,22.19,1.24,8.73,2.58
196986,-2.68,-8.88,18.53,1.11,8.73,2.73
197021,1.32,-7.90,16.31,0.84,8.73,2.76
197056,5.59,-7.05,17.90,0.57,8.73,2.64
197091,7.22,-5.90,18.14,0.48,8.73,2.33
197126,9.76,-4.57,19.80,0.51,8.73,2.11
197161,11.58,-4.53,23.23,0.52,8.73,1.95
197196,12.26,-5.75,25.04,0.59,8.73,1.85
197231,12.43,-4.95,29.59,0.56,8.73,1.72
197266,11.28,-5.30,33.56,0.67,8.73,1.72
197301,8.54,-4.33,36.53,0.79,8.73,1.85
197341,5.09,-6.11,37.97,0.84,8.73,1.97
197376,2.07,-6.69,36.59,0.68,8.73,2.10
197411,-2.48,-4.48,37.02,0.62,8.73,2.03
197446,-1.94,-4.34,33.18,0.63,8.73,1.91
197481,-5.70,-2.08,31.44,0.82,8.73,1.86
197516,-5.85,-3.68,27.41,1.02,8.73,1.91
197551,-4.28,-3.71,22.92,1.12,8.73,1.99
197586,-2.82,-5.77,18.50,1.09,8.73,2.08
197621,-0.92,-3.96,16.40,1.01,8.73,2.09
197656,1.48,-3.33,16.92,0.95,8.73,1.95
197691,6.36,-0.74,19.34,1.03,8.73,1.79
197726,9.87,-3.60,19.01,1.15,8.73,1.75
197761,9.18,-1.60,21.93,1.23,8.73,1.82
197796,11.89,-3.48,24.67,1.32,8.73,1.92
197831,13.15,-5.28,28.89,1.29,8.73,2.01
197866,12.62,-8.34,32.77,1.21,8.73,2.13
197901,9.33,-7.22,34.32,1.15,8.73,2.14
197936,6.38,-7.23,37.04,0.99,8.73,1.99
197971,3.64,-6.51,36.87,1.01,8.73,1.83
198006,0.35,-4.75,36.96,1.14,8.73,1.73
198041,-2.85,-5.52,34.40,1.30,8.73,1.70
198076,-5.23,-5.00,32.39,1.53,8.73,1.77
198111,-5.98,-6.35,29.11,1.66,8.73,1.97
198146,-9.34,-7.92,27.01,1.64,8.73,2.19
198181,-5.32,-8.72,22.00,1.55,8.73,2.37
198216,-4.05,-6.85,19.35,1.36,8.73,2.54
198251,0.98,-7.36,17.92,1.16,8.73,2.52
198286,4.05,-5.30,18.33,1.02,8.73,2.44
198321,5.92,-3.08,18.44,1.03,8.73,2.23
198356,8.75,-2.06,21.50,1.21,8.73,2.10
198391,12.14,-1.73,24.42,1.44,8.73,2.08
198426,12.48,-4.72,29.07,1.57,8.73,2.32
198461,12.88,-6.51,32.25,1.58,8.73,2.49
198496,11.28,-8.58,35.44,1.30,8.73,2.67
198531,8.78,-10.69,37.21,1.10,8.73,2.60
198566,4.31,-7.91,37.31,0.87,8.73,2.39
198601,1.57,-7.68,37.08,0.70,8.73,2.28
198636,-1.59,-5.89,35.11,0.59,8.73,2.17
198671,-4.31,-5.04,34.47,0.64,8.73,2.05
198706,-4.82,-5.62,30.88,0.61,8.73,1.96
198741,-6.54,-3.66,27.60,0.62,8.73,1.89
198776,-6.61,-1.13,25.62,0.63,8.73,1.78
198811,-5.38,-2.54,21.32,0.63,8.73,1.72
198847,-1.29,-2.39,20.00,0.74,8.73,1.78
198881,0.68,-3.13,19.54,0.72,8.73,1.84
198916,4.92,-4.45,19.33,0.69,8.73,1.89
198951,8.65,-3.59,21.53,0.68,8.73,1.85
198986,11.77,-6.14,24.10,0.60,8.73,1.77
199021,13.78,-5.83,27.64,0.55,8.73,1.73
199056,13.00,-5.63,31.36,0.63,8.73,1.57
199091,12.53,-5.37,34.97,0.58,8.73,1.45
199126,8.93,-6.63,36.64,0.74,8.73,1.22
199161,6.46,-3.17,37.57,0.83,8.73,1.09
199196,2.24,-5.69,37.00,1.07,8.73,1.33
199231,0.02,-4.82,36.45,1.07,8.73,1.57
199266,-3.97,-7.10,35.13,1.02,8.73,1.72
199301,-4.85,-4.55,33.07,0.94,8.73,1.78
199336,-6.22,-3.74,29.69,0.91,8.73,1.79
199376,-4.54,-0.87,26.08,0.90,8.73,1.71
199411,-4.56,-3.37,22.15,1.01,8.73,1.70
199446,-0.68,-1.07,20.83,1.01,8.73,1.67
199481,2.63,-1.03,19.34,1.07,8.73,1.64
199516,6.02,-1.75,18.38,1.13,8.73,1.68
199551,8.80,-4.27,18.99,1.13,8.73,1.80
199586,11.16,-5.11,22.71,1.08,8.73,1.90
199621,13.10,-6.50,25.32,0.91,8.73,1.88
199656,12.72,-5.04,28.68,0.95,8.73,1.87
199691,11.76,-6.24,31.58,1.00,8.73,1.93
199726,9.61,-6.17,34.02,1.07,8.73,2.00
199761,6.07,-7.07,35.60,1.01,8.73,2.04
199796,3.55,-7.55,37.55,0.96,8.73,2.03
199831,0.65,-6.69,36.45,0.92,8.73,1.96
199866,-2.02,-5.23,37.38,1.06,8.73,1.78
199901,-5.52,-6.84,35.66,1.10,8.73,1.82
199936,-5.92,-5.25,31.83,1.22,8.73,1.89
199971,-6.99,-6.00,25.59,1.20,8.73,1.88
200006,-4.04,-3.46,22.50,0.97,8.73,1.83
200041,-2.67,-2.41,20.22,0.98,8.73,1.67
200076,0.69,0.63,18.92,1.02,8.73,1.54
200111,5.06,0.33,19.23,1.15,8.73,1.54
200146,7.95,-1.88,19.48,1.24,8.73,1.65
200181,10.49,-6.23,19.69,1.28,8.73,1.80
200216,11.91,-5.62,23.66,1.11,8.73,1.87
200251,12.97,-5.06,26.49,1.03,8.73,1.92
200286,11.64,-6.45,27.44,1.15,8.73,2.01
200321,10.30,-9.81,32.69,1.03,8.73,1.94
200356,9.43,-6.58,38.72,1.00,8.73,2.02
200391,5.75,-7.71,37.71,1.00,8.73,2.10
200426,1.43,-7.44,37.71,1.06,8.73,1.90
200461,-1.06,-5.30,35.91,1.00,8.73,1.84
200496,-3.93,-6.50,33.50,1.11,8.73,1.82
200531,-5.76,-5.49,30.95,1.17,8.73,1.86
200566,-5.79,-6.58,28.03,1.05,8.73,1.96
200601,-4.29,-3.35,25.03,0.99,8.73,1.91
200636,-3.76,-4.04,20.82,0.93,8.73,1.86
200671,-0.20,-1.93,19.32,0.98,8.73,1.77
200706,2.82,-1.61,18.27,1.02,8.73,1.67
200741,6.00,-0.92,18.13,1.13,8.73,1.56
200776,4.46,-1.24,16.58,1.21,8.73,1.68
200811,10.41,-3.85,23.37,1.42,8.73,1.74
200846,13.71,-3.60,25.32,1.45,8.73,1.89
200881,12.19,-4.12,29.65,1.46,8.73,2.14
200916,12.36,-9.49,32.95,1.49,8.73,2.37
200951,8.36,-9.08,35.64,1.32,8.73,2.44
200986,6.70,-8.54,37.34,1.15,8.73,2.45
201021,2.26,-8.59,37.53,0.95,8.73,2.45
201056,-0.40,-7.53,38.31,0.90,8.73,2.27
201091,-3.54,-6.19,36.80,1.01,8.73,2.13
201126,-5.90,-6.51,33.50,1.12,8.73,2.09
201161,-6.17,-8.09,28.95,1.18,8.73,2.15
201196,-6.01,-5.13,25.65,1.09,8.73,2.20
201231,-5.11,-7.50,21.11,0.94,8.73,2.19
201266,-2.10,-3.25,19.78,0.88,8.73,2.08
201301,0.45,-4.01,18.87,0.81,8.73,2.01
201337,3.84,-5.08,19.46,0.78,8.73,1.88
201372,8.52,-4.77,20.10,0.73,8.73,1.89
201411,11.84,-4.14,23.41,0.81,8.73,1.75
201446,13.73,-7.18,26.37,0.88,8.73,1.71
201481,13.17,-5.73,29.98,0.84,8.73,1.57
201516,12.78,-5.46,33.09,0.78,8.73,1.54
201551,9.12,-5.80,34.85,0.93,8.73,1.44
201586,6.91,-5.41,36.90,1.01,8.73,1.41
201621,3.43,-5.56,37.96,1.19,8.73,1.46
201656,0.63,-5.13,38.36,1.33,8.73,1.53
201691,-2.58,-6.83,35.82,1.45,8.73,1.66
201726,-5.57,-5.12,33.03,1.46,8.73,1.79
201761,-5.90,-5.88,28.79,1.36,8.73,1.93
201796,-6.26,-5.94,24.56,1.22,8.73,1.99
201831,-4.12,-4.87,21.30,1.12,8.73,2.04
201866,-3.86,-2.56,18.40,1.05,8.73,2.05
201901,-3.09,-2.58,20.95,1.03,8.73,2.08
201936,0.59,-4.01,17.96,1.01,8.73,2.00
201971,7.11,-2.29,21.37,0.98,8.73,1.96
202006,12.24,-4.83,20.38,0.93,8.73,1.94
202041,11.43,-3.44,24.28,0.84,8.73,1.88
202076,13.19,-4.20,27.19,0.86,8.73,1.85
202111,11.82,-6.44,30.94,0.91,8.73,1.78
202146,11.90,-7.16,34.04,0.75,8.73,1.64
202181,9.07,-4.79,36.89,0.74,8.73,1.40
202216,5.53,-4.69,37.12,0.85,8.73,1.22
202251,1.80,-4.39,37.68,1.13,8.73,1.13
202286,-1.45,-4.48,36.56,1.23,8.73,1.30
202322,-3.89,-4.85,35.70,1.20,8.73,1.50
202357,-5.95,-3.67,32.22,1.09,8.73,1.59
202391,-7.37,-3.91,29.54,1.06,8.73,1.65
202427,-4.31,-2.29,25.45,1.12,8.73,1.66
202461,-4.24,-2.43,21.76,1.09,8.73,1.72
202496,-0.77,-2.43,20.34,1.17,8.73,1.75
202531,1.76,-2.90,19.68,1.16,8.73,1.81
202566,5.45,-3.31,19.04,1.16,8.73,1.86
202601,9.16,-2.80,20.63,1.15,8.73,1.92
202636,11.47,-5.40,24.28,1.16,8.73,1.96
202671,13.88,-5.08,27.18,1.18,8.73,1.97
202706,13.41,-6.50,29.86,1.05,8.73,1.96
202741,11.60,-8.43,32.13,0.91,8.73,1.88
202776,8.78,-5.98,34.02,0.80,8.73,1.77
202811,5.97,-5.76,35.40,0.83,8.73,1.72
202847,3.06,-7.13,37.09,0.88,8.73,1.87
202881,-0.38,-6.47,36.68,0.83,8.73,1.98
202916,-3.44,-6.65,34.87,0.67,8.73,1.97
202951,-7.38,-0.08,37.84,0.76,8.73,1.79
202986,-6.80,-4.58,32.45,0.81,8.73,1.77
203021,-4.94,-5.06,25.93,0.81,8.73,1.71
203056,-1.50,-0.50,21.88,0.75,8.73,1.66
203092,1.51,-2.09,19.19,0.80,8.73,1.48
203126,1.81,1.34,18.55,0.91,8.73,1.39
