timestamp,accelX,accelY,accelZ,gyroX,gyroY,gyroZ
89347,-5.26,-5.82,18.64,1.02,8.73,2.23
89382,-0.76,-3.61,16.97,0.89,8.73,2.01
89416,4.40,-2.78,17.61,0.87,8.73,1.94
89451,8.69,-4.08,18.18,0.86,8.73,1.92
89491,10.64,-5.06,20.54,0.82,8.73,1.91
89526,12.96,-6.03,23.01,0.80,8.73,1.90
89561,12.88,-3.88,26.60,0.82,8.73,1.87
89596,11.08,-6.31,29.48,0.92,8.73,1.94
89631,10.52,-6.62,33.22,0.89,8.73,1.95
89666,8.27,-7.17,36.40,0.85,8.73,1.97
89700,4.85,-7.57,38.12,0.84,8.73,2.01
89735,1.14,-6.32,39.47,0.74,8.73,2.03
89770,-1.91,-7.48,35.91,0.69,8.73,2.00
89805,-5.06,-4.47,35.11,0.62,8.73,1.91
89840,-7.17,-5.52,32.30,0.55,8.73,1.84
89875,-6.92,-2.22,28.16,0.58,8.73,1.74
89910,-5.11,-2.38,24.82,0.72,8.73,1.72
89945,-3.70,-2.57,22.35,0.87,8.73,1.82
89980,-1.42,-4.91,21.18,0.91,8.73,1.94
90014,-0.68,-6.00,19.79,0.86,8.73,2.02
90049,5.11,-3.65,21.80,0.79,8.73,1.97
90084,10.25,-6.66,22.74,0.73,8.73,1.99
90119,12.33,-6.26,26.30,0.66,8.73,1.96
90154,12.95,-6.03,30.42,0.68,8.73,1.84
90189,12.67,-5.03,33.43,0.85,8.73,1.83
90224,11.95,-7.82,37.05,1.02,8.73,1.93
90259,8.54,-6.12,39.43,1.11,8.73,2.09
90294,4.80,-7.52,39.97,1.06,8.73,2.25
90329,1.42,-8.20,40.93,0.92,8.73,2.34
90364,-1.67,-8.49,38.32,0.78,8.73,2.40
90399,-3.87,-5.48,35.32,0.67,8.73,2.31
90434,-5.39,-4.19,32.19,0.63,8.73,2.24
90469,-6.87,-5.11,29.01,0.72,8.73,2.22
90504,-5.71,-5.09,26.18,0.87,8.73,2.31
90539,-4.99,-7.43,22.54,0.82,8.73,2.60
90574,0.32,-10.74,21.32,0.67,8.73,2.74
90609,4.11,-9.43,21.23,0.37,8.73,2.79
90644,7.54,-10.91,22.12,0.13,8.73,2.60
90679,10.43,-8.53,24.89,-0.01,8.73,2.36
90714,13.42,-7.27,28.46,-0.18,8.73,2.03
90749,12.93,-6.17,33.48,-0.12,8.73,1.66
90784,12.53,-3.46,38.52,0.06,8.73,1.39
90820,9.77,-3.62,41.50,0.38,8.73,1.27
90854,6.62,-4.02,43.35,0.67,8.73,1.38
90889,3.11,-5.02,43.96,0.74,8.73,1.55
90924,-0.41,-6.94,41.18,0.70,8.73,1.74
90959,-3.57,-3.78,39.96,0.60,8.73,1.78
90995,-5.34,-3.50,36.92,0.53,8.73,1.66
91029,-5.70,0.44,33.57,0.61,8.73,1.55
91064,-4.52,-0.10,29.85,0.77,8.73,1.48
91099,-3.12,0.02,26.56,0.94,8.73,1.49
91134,2.73,-0.59,24.70,1.08,8.73,1.64
91169,7.32,-4.24,24.07,1.15,8.73,1.77
91204,10.62,-5.83,24.01,1.11,8.73,1.93
91239,11.87,-7.03,25.84,0.96,8.73,2.01
91274,12.75,-6.35,29.74,0.83,8.73,1.96
91309,13.71,-4.79,33.29,0.81,8.73,1.89
91344,12.43,-7.01,36.48,0.86,8.73,1.84
91379,9.48,-6.41,39.43,0.95,8.73,1.79
91414,6.16,-6.78,40.59,0.98,8.73,1.81
91449,3.01,-6.84,41.84,1.05,8.73,1.85
91484,-0.27,-5.48,41.32,1.07,8.73,1.85
91524,-3.07,-6.23,37.61,1.12,8.73,1.89
91559,-6.87,-6.31,37.02,1.12,8.73,1.94
91594,-4.89,-5.47,31.84,0.94,8.73,1.94
91629,-5.37,-3.00,27.88,0.82,8.73,1.72
91664,-4.42,0.99,25.49,0.81,8.73,1.60
91699,0.07,-1.91,24.06,0.96,8.73,1.61
91734,4.23,-2.57,23.82,1.00,8.73,1.76
91769,8.34,-5.01,23.78,0.91,8.73,1.92
91804,10.77,-7.22,25.14,0.82,8.73,1.98
91840,13.44,-7.71,28.73,0.63,8.73,1.94
91874,13.51,-7.61,31.83,0.56,8.73,1.75
91909,12.22,-6.39,35.85,0.50,8.73,1.53
91944,10.74,-5.52,38.68,0.53,8.73,1.27
91979,7.66,-5.26,41.30,0.79,8.73,1.25
92014,3.78,-5.88,42.91,1.04,8.73,1.43
92049,0.29,-6.33,42.62,1.21,8.73,1.51
92084,-3.15,-5.99,40.72,1.15,8.73,1.67
92119,-5.30,-5.82,37.08,1.23,8.73,1.73
92154,-6.61,-5.49,33.45,1.04,8.73,1.76
92189,-4.70,-2.07,29.41,1.00,8.73,1.69
92224,-1.82,-1.78,26.17,1.10,8.73,1.58
92259,0.78,0.79,23.16,1.19,8.73,1.49
92294,4.14,0.10,23.68,1.32,8.73,1.49
92330,8.14,-1.60,23.26,1.40,8.73,1.68
92364,10.76,-3.45,24.95,1.50,8.73,1.83
92399,12.46,-6.28,27.97,1.49,8.73,2.00
92434,13.45,-9.26,30.61,1.27,8.73,2.09
92469,13.00,-6.91,34.63,1.19,8.73,2.12
92504,11.33,-7.52,38.17,1.15,8.73,2.23
92539,9.10,-9.01,41.15,1.07,8.73,2.27
92574,4.27,-9.21,42.85,0.96,8.73,2.22
92609,0.47,-8.36,43.47,0.89,8.73,2.15
92644,-3.23,-7.66,41.88,0.83,8.73,2.16
92679,-5.98,-5.80,38.96,0.80,8.73,2.09
92714,-5.73,-5.02,33.56,0.81,8.73,2.03
92749,-3.51,-3.79,29.21,0.82,8.73,1.95
92784,-3.63,-4.13,25.71,0.84,8.73,1.95
92820,0.13,-3.62,23.24,0.95,8.73,1.95
92854,3.46,-3.59,23.03,0.94,8.73,1.96
92889,6.53,-4.40,23.66,1.01,8.73,1.88
92924,9.59,-4.20,23.81,1.02,8.73,1.88
92959,11.84,-4.83,27.60,1.05,8.73,1.90
92994,12.88,-6.59,32.00,1.02,8.73,1.89
93029,13.62,-7.70,35.26,0.90,8.73,1.78
93064,11.95,-8.72,38.30,0.88,8.73,1.64
93099,8.83,-5.46,41.41,0.93,8.73,1.42
93134,4.77,-5.67,41.73,1.11,8.73,1.26
93169,1.49,-6.62,42.79,1.39,8.73,1.39
93204,-2.21,-6.41,40.50,1.35,8.73,1.63
93239,-5.55,-6.88,38.30,1.33,8.73,1.76
93274,-4.91,-4.78,33.99,1.17,8.73,1.82
93309,-3.33,-5.00,28.48,1.10,8.73,1.73
93345,-3.49,0.61,26.51,1.03,8.73,1.60
93379,-0.99,-0.40,23.59,1.09,8.73,1.43
93414,-0.12,2.05,24.22,1.34,8.73,1.37
93450,6.29,1.06,24.55,1.61,8.73,1.34
93484,9.79,-0.76,24.19,1.86,8.73,1.56
93519,12.23,-3.58,26.93,2.04,8.73,1.87
93559,13.63,-7.20,31.70,1.94,8.73,2.17
93594,12.93,-9.90,34.57,1.75,8.73,2.36
93629,11.56,-12.24,37.70,1.51,8.73,2.38
93664,8.12,-8.96,41.34,1.31,8.73,2.30
93699,6.50,-8.61,42.37,1.20,8.73,2.14
93734,1.09,-8.77,43.84,1.26,8.73,2.06
93769,-2.06,-7.81,39.95,1.28,8.73,2.06
93804,-4.11,-8.15,35.97,1.33,8.73,2.09
93839,-6.04,-7.80,33.40,1.28,8.73,2.18
93874,-5.58,-6.58,29.52,1.27,8.73,2.19
93909,-4.43,-6.33,26.39,1.10,8.73,2.23
93944,-1.83,-6.72,23.74,1.06,8.73,2.18
93979,1.78,-4.82,22.67,0.99,8.73,2.08
94014,7.08,-3.52,24.06,1.05,8.73,1.92
94049,10.46,-3.43,23.96,1.14,8.73,1.90
94084,11.99,-5.97,26.12,1.21,8.73,1.93
94119,13.25,-4.93,30.25,1.23,8.73,1.98
94154,13.41,-5.98,33.49,1.20,8.73,2.05
94189,11.39,-8.27,36.13,1.20,8.73,2.12
94224,9.32,-7.16,39.40,1.15,8.73,2.17
94259,5.86,-9.24,41.46,1.08,8.73,2.24
94294,2.31,-8.36,41.74,1.02,8.73,2.21
94330,-1.10,-7.24,39.77,0.99,8.73,2.18
94364,-4.05,-6.89,37.67,0.97,8.73,2.14
94399,-3.75,-5.10,33.82,0.90,8.73,2.10
94434,-6.32,-3.95,30.77,0.88,8.73,2.04
94469,-4.72,-4.32,28.63,0.74,8.73,1.94
94504,-4.58,-3.32,24.45,0.80,8.73,1.84
94539,0.09,-0.69,24.39,0.87,8.73,1.70
94574,5.32,-2.17,23.61,0.97,8.73,1.63
94609,7.81,-2.71,22.46,1.07,8.73,1.61
94644,10.92,-4.87,24.54,1.06,8.73,1.69
94679,12.63,-6.22,28.81,0.94,8.73,1.74
94714,13.32,-6.99,31.42,0.83,8.73,1.69
94749,12.35,-6.91,35.84,0.94,8.73,1.62
94784,9.65,-4.41,38.64,0.95,8.73,1.58
94820,7.06,-7.46,40.44,1.08,8.73,1.50
94854,2.93,-6.41,41.41,1.26,8.73,1.55
94889,-0.72,-8.07,43.56,1.45,8.73,1.65
94924,-3.58,-6.62,40.90,1.50,8.73,1.82
94959,-7.02,-6.82,37.31,1.48,8.73,1.98
94994,-5.88,-8.35,32.29,1.46,8.73,2.15
95029,-5.52,-7.88,27.53,1.35,8.73,2.30
95064,-4.03,-7.05,24.43,1.27,8.73,2.37
95099,-1.28,-5.68,23.25,1.14,8.73,2.40
95134,3.30,-5.14,23.11,1.03,8.73,2.30
95169,7.21,-3.67,23.30,1.00,8.73,2.18
95204,11.09,-4.58,24.57,0.97,8.73,2.14
95239,12.99,-4.51,28.03,1.07,8.73,2.09
95274,14.32,-5.86,31.27,1.11,8.73,2.04
95309,12.98,-6.07,33.61,1.02,8.73,2.02
95345,11.44,-10.17,35.47,0.95,8.73,1.92
95379,9.57,-4.10,39.85,0.88,8.73,1.68
95414,5.32,-6.77,41.61,0.97,8.73,1.63
95449,1.52,-5.85,42.32,1.10,8.73,1.62
95484,-1.52,-5.49,40.01,1.17,8.73,1.66
95519,-4.10,-5.26,36.48,1.11,8.73,1.76
95554,-5.65,-5.33,33.09,1.13,8.73,1.77
95594,-6.11,-5.65,29.28,1.01,8.73,1.76
95629,-4.97,-1.60,26.88,1.01,8.73,1.81
95664,-0.68,-2.13,24.73,1.02,8.73,1.79
95699,3.77,-4.29,22.23,1.10,8.73,1.93
95734,7.92,-4.64,21.67,1.01,8.73,2.17
95769,9.67,-6.20,21.81,1.02,8.73,2.13
95804,11.12,-6.56,24.91,0.93,8.73,2.11
95839,12.26,-5.65,27.75,0.90,8.73,2.10
95874,12.82,-6.69,31.06,1.00,8.73,2.13
95909,11.61,-6.39,35.12,1.10,8.73,2.23
95944,9.65,-7.80,38.99,0.99,8.73,2.25
95979,6.27,-8.96,40.33,0.90,8.73,2.30
96014,2.52,-7.22,41.58,0.81,8.73,2.25
96049,-0.63,-8.67,38.92,0.70,8.73,2.23
96084,-2.91,-5.25,36.96,0.68,8.73,2.08
96118,-4.53,-4.64,34.34,0.59,8.73,2.00
96153,-6.41,-3.76,31.14,0.63,8.73,1.88
96188,-5.51,-1.78,28.65,0.73,8.73,1.86
96223,-4.05,-3.08,23.97,0.77,8.73,1.90
96258,0.46,-3.01,21.48,0.80,8.73,1.82
96293,4.92,-4.31,20.87,0.80,8.73,1.87
96329,8.13,-4.45,20.76,0.79,8.73,1.83
96363,10.71,-4.39,22.58,0.77,8.73,1.78
96398,9.36,-5.03,22.89,0.75,8.73,1.83
96433,12.09,-4.82,29.50,0.86,8.73,1.75
96468,13.33,-4.71,33.86,0.87,8.73,1.80
96503,12.18,-6.14,37.42,0.99,8.73,1.86
96538,8.90,-6.57,40.68,1.06,8.73,1.92
96573,5.32,-7.21,41.51,1.09,8.73,2.00
96608,1.47,-6.80,41.02,1.10,8.73,2.01
96643,-1.36,-6.42,38.10,1.25,8.73,1.95
96678,-3.79,-4.27,35.94,1.44,8.73,1.92
96713,-5.07,-6.21,31.75,1.61,8.73,2.05
96748,-7.30,-9.42,28.33,1.62,8.73,2.23
96783,-6.15,-7.52,25.82,1.49,8.73,2.40
96818,-3.08,-8.37,23.58,1.23,8.73,2.48
96853,1.52,-6.31,22.32,1.08,8.73,2.38
96888,6.59,-5.57,21.65,0.93,8.73,2.36
96923,9.24,-6.42,21.26,0.86,8.73,2.27
96958,11.15,-6.38,24.94,0.79,8.73,2.19
96993,12.80,-5.32,27.66,0.72,8.73,2.09
97028,13.45,-6.86,30.49,0.75,8.73,2.04
97063,11.93,-7.00,34.66,0.82,8.73,2.02
97098,9.97,-5.87,37.77,0.79,8.73,1.97
97133,7.24,-7.79,41.01,0.77,8.73,1.99
97168,3.89,-6.06,40.79,0.75,8.73,1.96
97203,0.00,-6.78,39.15,0.77,8.73,1.89
97239,-2.97,-3.71,37.32,0.69,8.73,1.81
97273,-5.88,-4.50,34.69,0.78,8.73,1.76
97308,-6.97,-4.33,31.19,0.70,8.73,1.68
97344,-6.69,-1.03,28.54,0.69,8.73,1.59
97378,-10.94,-0.61,27.60,0.86,8.73,1.58
97413,-0.58,-0.56,24.47,0.96,8.73,1.43
97448,4.45,-0.36,21.44,1.14,8.73,1.47
97483,7.08,-0.01,22.47,1.31,8.73,1.52
97518,10.13,-3.84,22.39,1.36,8.73,1.68
97553,11.56,-5.17,24.73,1.43,8.73,1.83
97588,12.79,-5.93,28.60,1.32,8.73,1.91
97628,13.43,-7.54,32.97,1.25,8.73,2.00
97663,11.88,-7.85,36.66,1.18,8.73,2.05
97698,9.23,-8.38,38.79,1.09,8.73,2.06
97733,5.54,-8.04,39.11,1.03,8.73,2.03
97768,2.16,-7.58,40.13,1.05,8.73,1.96
97803,-1.41,-6.40,38.58,1.07,8.73,1.94
97839,-4.34,-7.02,37.31,1.22,8.73,1.94
97873,-4.94,-7.65,32.98,1.20,8.73,2.01
97908,-5.52,-5.56,29.01,1.16,8.73,2.06
97943,-3.61,-6.97,25.27,1.06,8.73,2.12
97978,-3.21,-5.77,22.10,1.04,8.73,2.16
98013,0.56,-4.69,21.07,0.98,8.73,2.12
98048,3.56,-3.39,21.10,0.92,8.73,2.05
98083,7.11,-3.78,20.76,0.99,8.73,1.97
98118,10.28,-2.24,22.75,1.10,8.73,1.91
98153,12.80,-3.63,26.04,1.23,8.73,1.93
98188,13.26,-5.90,29.32,1.34,8.73,2.04
98223,12.91,-6.85,32.77,1.35,8.73,2.15
98258,11.10,-8.85,35.94,1.23,8.73,2.26
98293,8.53,-9.25,38.28,1.13,8.73,2.29
98328,5.20,-8.48,39.34,1.03,8.73,2.25
98363,1.62,-7.31,40.15,0.98,8.73,2.13
98398,-1.37,-7.10,37.48,1.01,8.73,2.06
98433,-4.30,-5.34,34.82,1.04,8.73,2.00
98468,-5.32,-5.63,31.29,1.02,8.73,1.99
98503,-6.12,-6.27,27.84,0.97,8.73,1.99
98538,-4.41,-3.66,24.82,0.88,8.73,1.99
98573,-2.62,-4.65,21.32,0.86,8.73,1.98
98608,1.66,-4.04,19.95,0.86,8.73,1.94
98643,5.95,-4.05,20.15,0.83,8.73,1.92
98678,7.76,-4.87,18.86,0.75,8.73,1.99
98713,9.72,-6.47,20.80,0.70,8.73,1.99
98748,10.91,-6.72,24.07,0.61,8.73,1.91
98783,12.20,-4.89,27.22,0.68,8.73,1.81
98818,12.73,-4.95,30.89,0.74,8.73,1.80
98853,11.68,-6.81,34.74,0.87,8.73,1.88
98888,8.61,-6.71,37.40,0.96,8.73,1.95
98923,6.13,-6.60,39.51,0.91,8.73,1.95
98958,2.02,-7.55,37.47,0.90,8.73,2.02
98993,-1.35,-4.82,36.28,0.90,8.73,1.97
99028,-3.56,-5.15,34.01,0.98,8.73,1.90
99063,-4.23,-4.56,30.66,1.03,8.73,1.88
99098,-6.86,-5.44,28.40,1.14,8.73,1.94
99133,-5.71,-4.75,25.05,1.18,8.73,2.05
99168,-3.56,-6.58,21.19,1.14,8.73,2.14
99203,-0.21,-4.63,19.25,1.07,8.73,2.06
99238,2.73,-2.05,17.87,0.99,8.73,1.93
99273,6.50,-1.73,17.90,1.09,8.73,1.80
99308,9.97,0.13,19.83,1.26,8.73,1.69
99343,10.95,-2.76,21.67,1.44,8.73,1.73
99378,11.12,-5.92,23.42,1.52,8.73,1.89
99413,12.34,-5.25,28.74,1.40,8.73,2.06
99448,11.13,-8.34,32.59,1.19,8.73,2.07
99483,9.10,-7.74,35.21,1.04,8.73,2.04
99518,6.31,-7.50,37.92,0.97,8.73,2.01
99553,3.22,-7.00,38.68,0.96,8.73,1.90
99588,-0.06,-7.18,37.84,1.03,8.73,1.87
99623,-3.21,-5.82,35.56,1.06,8.73,1.83
99663,-5.39,-5.33,32.15,1.05,8.73,1.86
99698,-5.67,-5.54,28.20,1.04,8.73,1.86
99733,-5.40,-3.20,24.72,0.98,8.73,1.82
99768,-4.71,-3.46,21.78,0.98,8.73,1.77
99803,-2.27,-1.92,19.97,1.01,8.73,1.69
99839,1.54,-2.57,18.33,1.04,8.73,1.69
99873,5.79,-3.95,19.17,1.08,8.73,1.77
99908,7.99,-3.73,18.97,1.08,8.73,1.81
99943,10.49,-6.68,21.29,1.04,8.73,1.87
99978,11.98,-7.12,25.09,0.92,8.73,1.86
100013,13.00,-7.50,28.07,0.76,8.73,1.81
100048,11.79,-7.72,31.84,0.69,8.73,1.71
100083,9.71,-8.09,34.27,0.68,8.73,1.58
100118,8.67,-5.63,37.72,0.76,8.73,1.47
100153,3.76,-6.62,37.73,0.86,8.73,1.46
100188,0.89,-7.48,37.80,0.97,8.73,1.54
100223,-2.41,-5.15,35.58,0.80,8.73,1.67
100258,-4.52,-6.11,32.44,0.64,8.73,1.66
100293,-5.17,-3.40,29.03,0.35,8.73,1.52
100329,-6.88,-0.49,26.37,0.19,8.73,1.24
100364,-5.01,5.64,25.85,0.25,8.73,0.87
100398,-5.67,4.53,22.26,0.50,8.73,0.58
100433,0.65,6.44,20.83,0.97,8.73,0.58
100468,6.11,3.18,20.65,1.31,8.73,0.76
100503,8.70,0.37,21.02,1.53,8.73,1.04
100538,10.54,-2.59,21.20,1.69,8.73,1.31
100573,10.62,-4.21,24.61,1.61,8.73,1.57
100608,11.90,-7.70,27.50,1.55,8.73,1.80
100643,11.97,-7.92,32.20,1.39,8.73,1.93
100678,10.99,-9.44,35.65,1.24,8.73,2.05
100713,8.63,-9.58,38.88,1.09,8.73,2.03
100748,4.64,-8.12,38.86,0.97,8.73,1.93
100783,0.71,-8.90,38.46,0.89,8.73,1.93
100819,-2.21,-7.87,35.56,0.67,8.73,2.03
100853,-4.84,-4.87,33.82,0.49,8.73,1.92
100889,-5.31,-5.26,29.85,0.46,8.73,1.75
100923,-6.66,-2.92,27.32,0.44,8.73,1.55
100958,-3.92,0.79,25.09,0.49,8.73,1.34
100993,-3.17,0.40,21.31,0.63,8.73,1.05
101028,0.81,3.61,19.68,0.86,8.73,0.88
101063,0.72,0.76,20.38,1.13,8.73,0.88
101098,6.13,-0.99,19.93,1.39,8.73,1.21
101133,12.11,-2.57,23.58,1.37,8.73,1.58
101168,14.27,-7.30,27.79,1.43,8.73,1.78
101203,13.08,-8.47,28.55,1.33,8.73,1.91
101238,12.28,-7.11,30.97,1.21,8.73,2.04
101273,10.05,-9.75,34.12,1.19,8.73,2.25
101308,7.93,-10.71,37.24,1.13,8.73,2.45
101344,5.01,-11.10,38.91,0.90,8.73,2.68
101378,0.77,-12.64,37.29,0.51,8.73,2.86
101413,-2.34,-9.84,35.92,0.03,8.73,2.79
101448,-5.77,-6.64,38.34,-0.21,8.73,2.43
101483,-8.19,-4.46,34.37,-0.20,8.73,2.07
101518,-7.80,-1.67,32.51,-0.12,8.73,1.64
101553,-6.53,1.84,28.80,0.22,8.73,1.49
101588,-2.01,0.36,24.30,0.47,8.73,1.28
101623,3.03,0.28,21.95,0.78,8.73,1.13
101658,7.96,1.81,22.96,1.05,8.73,1.09
101698,9.95,-0.86,22.13,1.43,8.73,1.24
101733,13.42,-3.22,27.10,1.66,8.73,1.47
101768,14.24,-6.43,29.79,1.78,8.73,1.74
101803,13.63,-8.48,33.43,1.69,8.73,2.00
101838,11.73,-9.80,36.32,1.47,8.73,2.16
101873,8.60,-11.22,38.44,1.30,8.73,2.23
101908,5.00,-11.53,38.78,1.20,8.73,2.35
101943,1.03,-11.60,39.27,0.97,8.73,2.50
101978,-1.95,-9.39,36.64,0.63,8.73,2.58
102014,-4.90,-9.26,34.45,0.35,8.73,2.46
102048,-7.46,-5.80,33.47,0.13,8.73,2.25
102083,-5.74,-3.68,29.59,0.17,8.73,1.99
102118,-5.10,-3.01,25.51,0.30,8.73,1.84
102153,-1.58,-4.22,20.84,0.47,8.73,1.78
102188,3.62,-3.48,19.25,0.54,8.73,1.68
102223,6.05,-3.12,18.63,0.55,8.73,1.69
102258,8.08,-6.85,18.33,0.51,8.73,1.75
102293,10.56,-4.36,20.98,0.54,8.73,1.67
102329,12.73,-5.78,22.92,0.60,8.73,1.56
102363,12.40,-3.67,25.38,0.80,8.73,1.47
102398,11.66,-2.69,28.64,1.05,8.73,1.59
102433,11.34,-5.90,31.44,1.29,8.73,1.87
102468,9.07,-7.84,34.02,1.28,8.73,2.16
102503,5.03,-9.48,35.66,1.15,8.73,2.48
102538,2.63,-9.95,36.11,0.84,8.73,2.62
102573,-1.15,-6.61,35.86,0.69,8.73,2.49
102608,-4.26,-7.87,34.95,0.65,8.73,2.25
102643,-6.48,-5.21,31.89,0.77,8.73,2.12
102678,-6.16,-5.90,27.86,0.92,8.73,2.11
102713,-5.37,-7.37,23.58,0.96,8.73,2.17
102748,-3.87,-7.57,19.75,0.88,8.73,2.21
102783,-0.75,-4.93,17.75,0.79,8.73,2.16
102818,1.52,-5.68,15.76,0.70,8.73,2.05
102853,4.25,-4.09,16.28,0.65,8.73,1.93
102888,7.40,-4.41,17.80,0.63,8.73,1.90
102923,9.47,-4.78,20.04,0.64,8.73,1.87
102958,11.28,-5.18,23.08,0.63,8.73,1.81
102993,13.14,-5.76,25.64,0.65,8.73,1.75
103028,12.17,-4.79,29.54,0.80,8.73,1.75
103063,11.46,-6.26,32.72,0.90,8.73,1.90
103099,8.28,-7.13,35.41,0.96,8.73,2.03
103133,5.40,-7.33,36.62,0.90,8.73,2.14
103168,1.64,-7.77,36.28,0.78,8.73,2.17
103203,-1.54,-7.53,35.23,0.58,8.73,2.17
103238,-3.84,-4.54,33.28,0.51,8.73,2.05
103273,-5.42,-5.20,30.51,0.46,8.73,1.91
103308,-7.38,-3.03,28.52,0.52,8.73,1.77
103344,-7.41,-2.56,25.38,0.57,8.73,1.70
103378,-4.37,-2.90,22.01,0.69,8.73,1.71
103413,-0.63,-1.95,18.88,0.71,8.73,1.62
103448,1.92,-2.23,17.14,0.76,8.73,1.61
103482,5.43,-2.43,18.80,0.85,8.73,1.59
103516,7.59,-2.81,18.69,0.88,8.73,1.63
103550,9.53,-5.18,21.36,0.88,8.73,1.70
103584,11.46,-4.52,25.15,0.83,8.73,1.72
103619,12.21,-5.72,28.22,0.85,8.73,1.73
103654,12.92,-5.46,32.48,0.89,8.73,1.73
103688,10.49,-7.27,35.19,0.89,8.73,1.72
103728,6.89,-7.66,37.43,0.95,8.73,1.77
103763,3.53,-7.75,36.66,1.01,8.73,1.81
103798,0.01,-6.59,37.20,0.99,8.73,1.90
103833,-2.80,-6.61,35.09,1.01,8.73,1.89
103868,-5.38,-5.89,32.53,0.95,8.73,1.88
103903,-7.25,-4.81,30.31,0.94,8.73,1.89
103938,-6.32,-4.03,27.13,0.93,8.73,1.91
103973,-3.29,-4.13,23.60,1.03,8.73,1.96
104008,-3.34,-4.40,19.86,0.98,8.73,1.99
104043,-0.04,-4.93,18.04,0.96,8.73,2.00
104078,3.29,-3.23,18.21,0.88,8.73,1.99
104113,6.57,-4.20,17.72,0.85,8.73,1.94
104148,9.76,-3.63,20.36,0.90,8.73,1.89
104183,11.37,-5.51,23.30,0.96,8.73,1.85
104218,12.40,-5.19,27.06,0.97,8.73,1.85
104253,12.77,-6.13,30.10,1.04,8.73,1.90
104288,11.79,-6.53,32.88,1.05,8.73,1.96
104324,9.32,-7.61,35.26,1.00,8.73,2.01
104358,5.20,-7.30,36.22,0.97,8.73,1.99
104393,2.37,-6.70,37.69,0.91,8.73,2.00
104429,-1.38,-6.93,36.87,0.88,8.73,1.97
104463,-3.20,-7.16,32.94,0.76,8.73,2.00
104498,-6.05,-5.07,30.34,0.70,8.73,1.95
104533,-8.79,-4.16,29.79,0.80,8.73,1.91
104568,-6.82,-2.07,25.92,0.81,8.73,1.91
104604,-6.18,-4.31,21.63,0.92,8.73,2.00
104638,-2.63,-3.81,19.80,0.99,8.73,2.12
104673,0.26,-5.45,18.40,0.90,8.73,2.17
104708,5.10,-4.34,18.44,0.86,8.73,2.07
104742,9.32,-2.24,19.70,0.89,8.73,1.96
104777,11.33,-3.48,21.55,1.04,8.73,1.87
104812,12.59,-4.99,24.08,1.02,8.73,1.87
104847,13.47,-5.29,27.70,1.02,8.73,1.89
104882,12.79,-6.33,30.77,0.98,8.73,1.90
104917,10.35,-7.45,33.60,0.94,8.73,1.83
104952,8.22,-6.87,35.47,0.90,8.73,1.69
104987,4.92,-6.22,36.33,0.93,8.73,1.56
105022,1.04,-5.76,35.59,1.05,8.73,1.50
105057,-1.29,-4.51,34.28,1.23,8.73,1.47
105092,-4.40,-5.58,33.42,1.32,8.73,1.56
105127,-6.81,-4.82,30.27,1.26,8.73,1.65
105162,-6.74,-5.28,26.29,1.15,8.73,1.73
105197,-5.62,-3.67,23.32,1.06,8.73,1.70
105232,-3.71,-2.39,20.65,1.04,8.73,1.65
105267,-0.49,-1.25,18.42,1.08,8.73,1.52
105303,2.57,0.35,16.91,1.14,8.73,1.40
105337,6.01,0.77,17.71,1.32,8.73,1.39
105372,8.30,-0.88,18.14,1.48,8.73,1.48
105408,10.55,-2.78,19.84,1.60,8.73,1.63
105442,12.24,-4.15,23.00,1.65,8.73,1.82
105478,12.68,-6.87,26.94,1.57,8.73,2.00
105512,12.21,-8.25,29.91,1.43,8.73,2.12
105547,10.72,-8.04,32.84,1.22,8.73,2.12
105582,8.54,-8.01,34.59,1.08,8.73,1.99
105617,4.30,-7.55,35.38,1.07,8.73,1.82
105652,0.98,-6.11,35.06,1.08,8.73,1.75
105686,-2.17,-6.53,34.63,1.16,8.73,1.73
105721,-4.32,-6.24,32.60,1.17,8.73,1.79
105761,-6.49,-6.55,29.50,1.13,8.73,1.84
105796,-7.07,-4.98,26.30,1.04,8.73,1.86
105831,-5.55,-3.75,22.40,0.98,8.73,1.84
105866,-2.52,-3.03,19.19,0.93,8.73,1.75
105901,0.27,-2.08,16.84,0.97,8.73,1.68
105936,2.29,-1.23,15.67,1.02,8.73,1.63
105971,5.78,-0.81,16.13,1.15,8.73,1.58
106006,8.41,-2.07,16.18,1.28,8.73,1.62
106041,9.86,-2.17,18.91,1.36,8.73,1.73
106076,11.31,-4.57,22.26,1.40,8.73,1.87
106111,12.53,-5.95,25.47,1.34,8.73,2.00
106146,12.90,-6.37,28.58,1.26,8.73,2.14
106181,9.97,-8.38,30.89,1.15,8.73,2.25
106216,7.23,-8.61,32.92,1.04,8.73,2.24
106251,4.51,-8.41,34.94,0.92,8.73,2.17
106286,1.50,-7.52,35.02,0.90,8.73,2.00
106321,-1.41,-6.89,32.98,0.98,8.73,1.81
106356,-5.62,-5.78,31.91,1.05,8.73,1.73
106391,-6.29,-6.51,29.38,1.00,8.73,1.75
106425,-6.26,-6.54,25.77,0.92,8.73,1.74
106459,-8.75,-3.10,23.41,0.80,8.73,1.62
106494,-7.45,-1.49,20.28,0.78,8.73,1.49
106529,0.05,-1.17,19.45,0.86,8.73,1.35
106564,1.26,0.85,16.58,1.02,8.73,1.24
106599,4.85,0.98,17.31,1.24,8.73,1.17
106634,7.02,0.10,18.74,1.47,8.73,1.28
106669,9.31,-2.08,19.65,1.64,8.73,1.48
106704,9.98,-4.31,22.41,1.73,8.73,1.78
106739,12.97,-6.28,26.69,1.68,8.73,2.02
106774,12.38,-9.11,31.08,1.55,8.73,2.27
106809,11.93,-9.69,34.09,1.38,8.73,2.45
106844,6.91,-10.67,35.28,1.13,8.73,2.51
106879,5.65,-10.67,37.06,0.87,8.73,2.54
106914,0.68,-9.51,36.06,0.67,8.73,2.46
106949,-1.83,-8.34,35.62,0.50,8.73,2.34
106984,-5.34,-7.18,34.58,0.32,8.73,2.17
107019,-7.02,-4.72,31.96,0.30,8.73,1.96
107054,-5.70,-3.29,27.38,0.29,8.73,1.72
107089,-6.16,-1.34,24.52,0.42,8.73,1.52
107124,-2.55,-0.69,21.21,0.59,8.73,1.39
107159,0.23,-0.80,19.16,0.79,8.73,1.28
107194,2.65,-0.70,18.90,0.99,8.73,1.20
107229,6.37,-0.43,20.01,1.20,8.73,1.25
107264,9.30,-2.42,20.32,1.47,8.73,1.37
107299,12.12,-4.33,23.18,1.57,8.73,1.55
107335,12.42,-7.52,27.70,1.52,8.73,1.78
107369,14.09,-10.42,30.41,1.30,8.73,1.92
107404,11.02,-9.89,34.35,1.15,8.73,1.91
107438,7.81,-10.49,35.72,1.03,8.73,1.88
107472,5.17,-8.69,36.74,1.02,8.73,1.97
107506,1.67,-10.33,36.78,0.84,8.73,2.18
107541,-1.47,-9.62,35.23,0.61,8.73,2.29
107576,-4.61,-8.76,33.60,0.24,8.73,2.25
107611,-7.13,-5.74,32.34,-0.14,8.73,2.03
107646,-7.87,-2.28,28.49,-0.30,8.73,1.66
107681,-7.14,0.54,25.87,-0.15,8.73,1.32
107716,-6.46,1.62,23.79,0.19,8.73,1.18
107750,-3.96,1.61,21.07,0.52,8.73,1.14
107790,2.56,0.85,21.41,0.80,8.73,1.25
107825,7.37,-2.08,21.46,1.03,8.73,1.32
107860,11.39,-1.73,21.98,1.26,8.73,1.37
107895,12.26,-3.75,24.81,1.47,8.73,1.47
107931,13.04,-4.84,27.24,1.59,8.73,1.65
107965,13.68,-4.67,31.16,1.61,8.73,1.88
108000,11.96,-8.41,33.66,1.53,8.73,2.11
108035,8.18,-11.30,35.68,1.40,8.73,2.21
108070,4.86,-8.98,35.76,1.16,8.73,2.15
108105,1.83,-10.35,36.45,1.00,8.73,2.15
108140,-1.57,-8.58,36.76,0.87,8.73,2.19
108175,-4.03,-9.14,33.75,0.69,8.73,2.16
108210,-6.08,-6.42,31.03,0.46,8.73,2.07
108245,-7.20,-5.55,28.60,0.31,8.73,1.92
108280,-7.23,-2.56,25.89,0.31,8.73,1.72
108316,-6.36,-2.14,22.97,0.43,8.73,1.64
108350,-2.19,-2.60,19.97,0.58,8.73,1.57
108385,2.38,-3.55,19.10,0.64,8.73,1.55
108420,7.47,-4.36,19.84,0.71,8.73,1.59
108455,10.98,-3.94,19.08,0.75,8.73,1.61
108490,11.94,-6.45,21.25,0.73,8.73,1.60
108525,12.14,-6.11,24.07,0.72,8.73,1.57
108560,12.83,-5.57,26.32,0.76,8.73,1.57
108595,11.20,-5.11,29.38,0.90,8.73,1.66
108630,11.20,-7.05,33.10,1.04,8.73,1.86
108665,9.13,-7.63,34.50,1.07,8.73,2.09
108700,4.07,-9.18,33.82,0.94,8.73,2.32
108735,0.42,-10.09,34.28,0.67,8.73,2.51
108770,-2.79,-7.96,34.76,0.35,8.73,2.47
108805,-4.57,-6.22,33.39,0.11,8.73,2.31
108841,-8.14,-3.53,32.37,0.07,8.73,2.09
108875,-7.09,-2.68,28.71,0.18,8.73,1.86
108910,-5.85,-1.54,25.06,0.28,8.73,1.71
108945,-2.81,-0.49,22.12,0.48,8.73,1.65
108980,2.39,-1.98,19.57,0.58,8.73,1.59
109015,3.91,-2.75,17.74,0.64,8.73,1.56
109050,6.87,-2.97,18.47,0.67,8.73,1.53
109085,10.02,-3.46,19.29,0.78,8.73,1.45
109120,11.23,-4.21,21.63,0.86,8.73,1.41
109155,12.50,-2.56,24.34,0.89,8.73,1.38
109190,12.65,-5.63,26.77,0.91,8.73,1.35
109226,11.96,-5.96,30.24,0.91,8.73,1.28
109260,8.90,-5.00,33.40,0.96,8.73,1.09
109295,6.65,-5.40,34.80,1.11,8.73,0.92
109331,4.03,-5.39,36.05,1.39,8.73,0.93
109365,-0.34,-4.82,36.03,1.63,8.73,1.10
109400,-2.55,-5.85,34.50,1.81,8.73,1.33
109435,-4.99,-8.42,32.97,1.85,8.73,1.62
109470,-7.22,-7.78,30.14,1.82,8.73,1.92
109505,-7.16,-8.60,26.62,1.66,8.73,2.14
109540,-4.69,-6.25,22.46,1.51,8.73,2.23
109575,-2.04,-6.15,19.21,1.29,8.73,2.21
109610,0.88,-3.47,17.01,1.18,8.73,2.09
109645,3.77,-1.73,17.18,1.14,8.73,1.97
109680,5.83,-0.25,18.26,1.28,8.73,1.76
109715,8.69,-0.67,19.08,1.56,8.73,1.66
109750,11.14,-0.96,22.13,1.71,8.73,1.80
109785,11.94,-4.91,25.77,1.74,8.73,2.02
109824,11.96,-7.09,29.47,1.57,8.73,2.23
109859,11.10,-7.41,32.33,1.36,8.73,2.30
109895,9.48,-9.10,35.08,1.16,8.73,2.28
109929,5.03,-7.93,36.73,1.04,8.73,2.18
109964,2.33,-6.29,37.22,0.95,8.73,2.09
109998,-0.56,-5.85,37.07,0.98,8.73,1.98
110033,-3.93,-6.41,35.16,1.05,8.73,1.91
110068,-5.92,-5.40,32.57,1.14,8.73,1.94
110103,-6.38,-5.84,28.55,1.17,8.73,2.05
110138,-5.70,-5.56,24.49,1.22,8.73,2.13
110173,-4.83,-6.14,20.45,1.12,8.73,2.22
110208,-1.06,-6.10,18.35,1.06,8.73,2.25
110243,0.86,-5.27,16.95,0.92,8.73,2.17
110277,3.45,-3.45,17.35,0.89,8.73,2.04
110313,7.12,-3.50,19.29,0.89,8.73,1.98
110347,9.85,-5.63,21.96,0.88,8.73,1.96
110382,12.52,-6.82,24.56,0.77,8.73,1.93
110417,12.19,-7.35,28.34,0.73,8.73,1.87
110452,13.47,-6.40,32.24,0.66,8.73,1.76
110487,10.57,-7.21,34.45,0.64,8.73,1.69
110522,8.25,-5.77,36.66,0.75,8.73,1.64
110557,4.52,-5.95,38.16,0.77,8.73,1.73
110592,1.10,-6.42,36.94,0.79,8.73,1.80
110627,-2.17,-6.18,35.87,0.73,8.73,1.82
110662,-5.48,-4.52,35.00,0.68,8.73,1.80
110697,-5.15,-3.90,31.07,0.66,8.73,1.73
110732,-6.02,-2.94,27.66,0.72,8.73,1.60
110767,-4.57,-0.55,24.13,0.74,8.73,1.51
110802,-3.98,-0.96,21.15,0.90,8.73,1.47
110838,0.33,1.36,19.79,1.02,8.73,1.33
110872,3.33,2.65,19.44,1.20,8.73,1.22
110907,6.04,1.70,19.67,1.50,8.73,1.20
110942,9.25,2.22,21.91,1.72,8.73,1.35
110976,10.45,-4.45,24.81,1.85,8.73,1.62
111011,12.81,-5.20,27.90,1.70,8.73,1.82
111046,13.31,-6.72,31.46,1.57,8.73,2.01
111081,11.74,-8.93,35.27,1.43,8.73,2.03
111116,8.99,-7.97,37.99,1.30,8.73,1.92
111151,4.96,-7.51,38.07,1.29,8.73,1.91
111186,1.91,-7.47,38.53,1.39,8.73,1.87
111221,-2.07,-6.69,36.96,1.44,8.73,1.93
111256,-3.75,-6.58,33.98,1.59,8.73,2.01
111291,-4.37,-7.82,29.56,1.69,8.73,2.16
111326,-7.52,-8.97,27.54,1.74,8.73,2.41
111361,-6.76,-8.60,25.20,1.60,8.73,2.66
111396,-5.70,-12.47,21.25,1.35,8.73,2.90
111431,-1.51,-10.17,19.33,1.08,8.73,2.98
111466,1.58,-8.92,17.98,0.72,8.73,2.97
111500,4.99,-11.17,18.48,0.47,8.73,2.85
111534,9.12,-6.45,21.01,0.28,8.73,2.64
111569,10.92,-7.32,24.17,0.20,8.73,2.37
111604,12.65,-4.93,28.31,0.33,8.73,2.17
111639,13.62,-4.39,32.79,0.48,8.73,2.04
111674,11.54,-6.14,35.67,0.61,8.73,2.08
111709,9.68,-7.06,38.51,0.63,8.73,2.07
111744,5.41,-7.60,39.15,0.61,8.73,2.12
111779,2.22,-5.77,39.11,0.41,8.73,2.15
111815,-0.96,-7.32,36.69,0.19,8.73,2.16
111854,-4.56,-4.10,35.85,-0.05,8.73,2.00
111889,-4.23,-0.23,32.76,-0.18,8.73,1.74
111924,-5.83,0.45,29.40,-0.18,8.73,1.42
111960,-5.45,2.18,26.41,0.09,8.73,1.16
111994,-4.52,3.53,23.86,0.53,8.73,1.13
112029,-0.92,1.46,21.59,0.77,8.73,1.29
112064,2.37,-3.99,21.25,0.93,8.73,1.61
112099,6.48,-5.48,21.00,0.94,8.73,1.76
112134,10.22,-4.74,23.76,0.86,8.73,1.81
112169,12.86,-5.14,26.21,0.87,8.73,1.78
112204,12.92,-6.15,28.82,0.90,8.73,1.70
112239,13.66,-4.88,32.39,0.93,8.73,1.66
112274,12.05,-6.26,35.03,0.89,8.73,1.57
112309,8.54,-6.63,37.65,0.94,8.73,1.42
112345,5.44,-5.18,38.50,1.08,8.73,1.32
112379,1.28,-7.67,39.70,1.27,8.73,1.37
112414,-0.73,-4.94,37.33,1.38,8.73,1.51
112449,-4.72,-8.28,35.56,1.39,8.73,1.71
112485,-5.31,-5.92,32.28,1.33,8.73,1.86
112519,-4.70,-4.60,28.69,1.17,8.73,1.91
112554,-5.02,-4.67,25.54,1.07,8.73,1.92
112589,-3.40,-2.13,22.57,1.08,8.73,1.84
112625,0.53,-1.74,21.21,1.09,8.73,1.78
112659,3.16,-1.35,19.98,1.13,8.73,1.75
112694,6.21,-2.10,20.53,1.28,8.73,1.72
112729,9.90,-0.02,23.08,1.45,8.73,1.69
112764,12.23,-2.54,25.97,1.71,8.73,1.79
112799,13.26,-4.13,29.43,1.77,8.73,1.98
112834,12.98,-6.57,32.61,1.61,8.73,2.17
112869,11.40,-10.76,35.10,1.32,8.73,2.14
112904,8.53,-7.99,38.55,1.13,8.73,1.88
112940,5.67,-6.68,39.38,1.14,8.73,1.72
112974,1.29,-7.67,39.54,1.18,8.73,1.75
113010,-1.30,-6.84,37.45,1.23,8.73,1.83
113044,-5.02,-7.43,36.08,1.17,8.73,1.91
113079,-6.27,-6.22,32.80,1.13,8.73,2.02
113114,-7.07,-5.96,28.84,1.09,8.73,2.02
113149,-5.19,-3.78,26.12,1.07,8.73,2.10
113185,-3.20,-5.15,22.81,1.06,8.73,2.18
113219,1.44,-6.04,20.58,1.03,8.73,2.30
113254,5.18,-7.52,20.72,0.92,8.73,2.34
113289,7.79,-4.91,21.32,0.81,8.73,2.22
113324,10.43,-5.61,22.59,0.91,8.73,2.08
113359,11.94,-2.97,26.87,1.03,8.73,2.03
113394,12.74,-3.73,29.70,1.16,8.73,2.09
113429,12.23,-7.63,32.40,1.19,8.73,2.23
113464,10.81,-8.98,36.43,1.14,8.73,2.30
113499,9.23,-7.77,39.61,1.03,8.73,2.32
113534,4.54,-8.18,39.64,0.94,8.73,2.23
113569,0.71,-7.01,39.88,1.00,8.73,2.01
113604,-2.26,-4.85,38.48,1.11,8.73,1.89
113639,-3.51,-5.97,33.82,1.39,8.73,1.88
113674,-5.34,-6.51,30.68,1.58,8.73,1.98
113709,-7.63,-7.14,28.54,1.49,8.73,2.13
113744,-5.39,-6.30,25.33,1.25,8.73,2.13
113779,-1.70,-1.64,22.52,1.09,8.73,1.84
113815,3.32,1.71,21.55,1.11,8.73,1.39
113849,3.98,1.35,22.20,1.33,8.73,1.31
113889,9.74,0.40,23.14,1.63,8.73,1.38
113924,11.89,-5.29,23.79,1.67,8.73,1.66
113959,12.26,-5.40,26.82,1.53,8.73,1.90
113994,13.10,-7.29,31.22,1.39,8.73,1.99
114029,12.77,-8.54,35.18,1.20,8.73,2.01
114064,10.04,-6.80,38.25,1.07,8.73,1.91
114099,5.75,-8.46,38.97,1.08,8.73,1.84
114134,3.31,-6.39,39.70,1.13,8.73,1.77
114169,-0.62,-8.10,40.02,1.11,8.73,1.88
114204,-3.68,-8.30,38.01,1.12,8.73,1.96
114239,-5.12,-4.85,34.67,0.95,8.73,1.96
114274,-6.70,-5.14,30.79,0.98,8.73,1.95
114309,-5.60,-5.05,26.93,0.97,8.73,1.93
114344,-3.84,-3.26,23.35,0.99,8.73,1.98
114379,-0.18,-3.89,21.19,0.96,8.73,1.92
114414,1.47,-2.23,19.81,0.95,8.73,1.77
114449,4.17,-0.82,20.85,1.09,8.73,1.60
114484,7.86,-2.08,21.16,1.14,8.73,1.63
114519,11.47,-4.52,24.71,1.21,8.73,1.74
114554,13.64,-5.81,27.60,1.18,8.73,1.79
114589,13.60,-6.45,31.57,1.07,8.73,1.81
114625,11.70,-6.63,34.68,1.01,8.73,1.79
114659,9.52,-6.55,37.37,1.04,8.73,1.77
114694,6.16,-6.99,38.52,1.08,8.73,1.82
114729,2.34,-8.43,38.92,1.07,8.73,2.01
114764,-1.07,-7.62,38.81,0.92,8.73,2.22
114799,-3.38,-6.91,36.72,0.77,8.73,2.22
114835,-5.23,-5.09,33.50,0.80,8.73,2.17
114869,-6.62,-4.44,29.19,0.82,8.73,2.13
114905,-4.91,-5.67,24.64,0.87,8.73,2.22
114939,-4.19,-5.95,21.34,0.97,8.73,2.38
114974,-2.44,-7.91,20.19,0.87,8.73,2.63
115009,0.95,-10.59,18.66,0.61,8.73,2.77
115044,2.28,-7.87,20.96,0.46,8.73,2.65
115078,8.42,-4.61,22.13,0.39,8.73,2.34
115113,12.40,-5.37,23.66,0.51,8.73,2.09
115149,12.68,-2.34,28.64,0.64,8.73,1.93
115183,13.23,-2.79,31.47,0.76,8.73,1.90
115218,11.78,-6.74,34.18,0.79,8.73,1.86
115253,9.67,-5.75,37.51,0.80,8.73,1.69
115288,5.98,-5.00,38.93,0.84,8.73,1.62
115324,2.66,-5.71,38.24,0.93,8.73,1.64
115358,-0.12,-4.12,37.81,1.03,8.73,1.67
115393,-3.81,-6.20,36.73,1.07,8.73,1.76
115428,-6.14,-4.51,35.14,1.16,8.73,1.85
115463,-5.35,-5.06,31.05,1.21,8.73,1.94
115498,-5.98,-4.75,27.10,1.15,8.73,2.05
115533,-7.13,-5.68,23.29,1.20,8.73,2.25
115568,0.03,-6.43,21.55,1.16,8.73,2.52
115603,3.11,-10.24,19.07,0.92,8.73,2.74
115638,4.73,-8.28,18.58,0.65,8.73,2.75
115673,8.20,-6.28,20.53,0.62,8.73,2.55
115708,11.49,-2.68,25.62,0.77,8.73,2.36
115743,13.33,-3.63,30.65,0.96,8.73,2.33
115778,13.46,-6.44,33.64,1.11,8.73,2.38
115813,12.17,-6.78,36.43,1.12,8.73,2.55
115848,8.12,-9.13,37.28,0.95,8.73,2.62
115883,5.64,-8.79,37.49,0.76,8.73,2.49
115923,1.48,-7.58,38.31,0.61,8.73,2.25
115958,-2.87,-4.11,43.58,0.68,8.73,1.95
115993,-4.72,-5.37,38.02,0.70,8.73,1.94
116028,-5.35,-4.98,33.67,0.76,8.73,1.83
116063,-4.02,-3.48,27.88,0.67,8.73,1.69
116098,-1.99,-0.38,24.32,0.62,8.73,1.54
116133,-0.20,0.33,21.85,0.72,8.73,1.41
116168,1.84,-0.37,21.73,0.92,8.73,1.42
116203,3.05,-1.49,20.86,1.02,8.73,1.58
116238,5.61,-3.90,20.98,0.96,8.73,1.82
116273,9.79,-5.83,22.75,0.93,8.73,1.93
116308,12.68,-5.72,26.70,0.92,8.73,1.89
116344,12.83,-5.46,29.81,0.94,8.73,1.84
116378,13.50,-7.78,32.92,0.93,8.73,1.79
116414,10.71,-6.38,36.72,0.96,8.73,1.76
116448,8.66,-6.41,39.23,0.96,8.73,1.58
116483,4.63,-5.92,39.57,1.09,8.73,1.33
116518,1.09,-6.09,38.95,1.42,8.73,1.21
116553,-2.17,-5.65,38.79,1.49,8.73,1.45
116588,-5.68,-7.99,35.54,1.37,8.73,1.71
116623,-5.57,-6.52,31.55,1.13,8.73,1.82
116658,-5.58,-3.05,28.84,0.93,8.73,1.69
116693,-4.23,0.26,25.62,0.87,8.73,1.53
116728,-0.49,0.19,22.62,0.97,8.73,1.34
116763,2.50,1.09,20.35,1.16,8.73,1.29
116798,4.97,2.49,21.23,1.33,8.73,1.25
116833,7.53,1.50,21.47,1.62,8.73,1.31
116868,10.33,-0.94,24.69,1.97,8.73,1.50
116904,12.96,-3.20,27.99,2.02,8.73,1.81
116938,13.66,-7.14,32.04,1.86,8.73,2.06
116973,12.86,-10.16,35.30,1.57,8.73,2.13
117008,9.62,-9.03,38.03,1.28,8.73,1.92
117043,6.89,-7.64,39.21,1.23,8.73,1.57
117078,3.62,-6.04,40.71,1.46,8.73,1.42
117113,-0.59,-9.08,40.62,1.72,8.73,1.54
117148,-3.01,-8.32,38.75,1.81,8.73,1.82
117183,-4.89,-7.85,34.57,1.64,8.73,2.04
117218,-4.72,-8.06,29.63,1.44,8.73,2.15
117253,-5.42,-7.23,26.33,1.21,8.73,2.15
117288,-4.12,-4.72,23.59,1.12,8.73,2.12
117324,-0.28,-4.40,22.00,1.01,8.73,2.03
117358,1.62,-3.08,20.64,0.94,8.73,1.99
117393,6.25,-5.38,21.09,0.93,8.73,1.97
117428,9.55,-4.12,22.68,0.87,8.73,1.99
117463,11.35,-7.29,25.97,0.74,8.73,1.96
117498,12.81,-8.90,28.80,0.56,8.73,1.86
117533,12.49,-6.07,33.06,0.48,8.73,1.62
117568,12.35,-5.38,36.50,0.55,8.73,1.47
117603,9.16,-5.72,39.23,0.68,8.73,1.34
117638,5.82,-5.85,40.07,0.87,8.73,1.51
117673,1.90,-5.88,41.26,0.88,8.73,1.77
117708,-1.55,-6.68,40.48,0.71,8.73,1.94
117743,-3.11,-6.12,35.97,0.58,8.73,1.94
117778,-5.79,-3.29,32.96,0.38,8.73,1.80
117813,-5.23,-0.23,29.81,0.46,8.73,1.64
117848,-2.82,-0.22,26.37,0.59,8.73,1.57
117883,-6.15,-1.51,24.36,0.87,8.73,1.64
117918,0.79,-1.98,23.60,0.96,8.73,1.76
117958,5.31,-3.82,22.61,1.02,8.73,1.88
117993,8.13,-3.62,23.56,1.03,8.73,1.95
118028,12.50,-4.78,24.48,1.01,8.73,1.94
118063,12.81,-6.28,27.30,0.96,8.73,1.93
118098,13.47,-7.49,30.34,0.90,8.73,1.89
118133,12.70,-7.16,33.71,0.87,8.73,1.82
118168,10.44,-7.29,35.99,0.78,8.73,1.69
118203,7.45,-6.34,39.28,0.88,8.73,1.56
118238,4.01,-7.17,40.59,0.96,8.73,1.60
118273,0.59,-6.08,39.61,0.98,8.73,1.71
118308,-2.40,-6.50,36.85,1.01,8.73,1.79
118344,-5.55,-4.61,35.44,0.83,8.73,1.80
118378,-5.73,-3.45,31.82,0.81,8.73,1.77
118413,-6.20,-3.82,28.49,0.77,8.73,1.68
118448,-5.03,-0.49,24.85,0.83,8.73,1.60
118483,-3.27,0.03,22.64,0.92,8.73,1.52
118518,0.84,-1.47,22.14,1.04,8.73,1.51
118553,5.65,-2.46,22.14,1.14,8.73,1.62
118587,9.11,-2.86,21.84,1.18,8.73,1.70
118623,10.74,-4.19,24.80,1.22,8.73,1.81
118657,12.55,-6.04,28.07,1.27,8.73,1.89
118692,13.65,-6.74,32.07,1.22,8.73,1.94
118727,12.57,-6.83,35.77,1.17,8.73,1.99
118762,9.35,-8.07,38.32,1.13,8.73,1.97
118797,5.92,-7.12,38.51,1.10,8.73,1.97
118832,2.77,-7.84,39.58,1.08,8.73,2.02
118867,0.01,-7.38,38.61,1.03,8.73,2.05
118902,-3.32,-7.82,37.28,1.15,8.73,2.04
118937,-6.68,-5.56,37.22,1.21,8.73,2.02
118972,-6.17,-7.41,31.02,1.30,8.73,2.17
119007,-7.48,-7.21,26.76,1.32,8.73,2.22
119042,-5.15,-6.08,23.31,1.18,8.73,2.30
119077,-0.81,-5.94,21.64,0.98,8.73,2.18
119112,2.90,-5.01,21.17,0.87,8.73,2.09
119147,6.35,-4.04,21.54,0.87,8.73,1.99
119182,8.91,-4.89,21.54,0.77,8.73,2.03
119217,11.43,-7.25,24.00,0.76,8.73,2.04
119252,13.05,-5.09,27.78,0.65,8.73,1.97
119288,13.76,-5.14,31.38,0.68,8.73,1.92
119323,11.89,-6.22,34.68,0.77,8.73,1.92
119357,9.40,-6.39,36.82,0.87,8.73,2.01
119392,5.60,-6.70,38.74,0.84,8.73,2.09
119427,2.55,-7.19,40.33,0.77,8.73,2.02
119462,-0.18,-5.88,39.05,0.87,8.73,1.96
119497,-3.08,-5.54,36.73,0.94,8.73,1.90
119531,-4.42,-5.14,33.72,1.02,8.73,1.90
119566,-5.11,-5.16,29.19,1.11,8.73,1.87
119601,-4.19,-3.52,26.47,1.07,8.73,1.90
119637,-4.31,-4.42,22.89,1.05,8.73,1.83
119671,-1.98,-2.31,21.16,1.07,8.73,1.77
119706,1.46,-1.81,20.89,1.10,8.73,1.79
119741,6.32,-3.06,20.45,1.15,8.73,1.80
119776,9.76,-4.53,21.69,1.22,8.73,1.87
119810,12.10,-3.17,25.16,1.22,8.73,1.92
119845,13.43,-5.59,27.90,1.35,8.73,2.04
119880,12.67,-6.34,31.45,1.36,8.73,2.15
119915,11.53,-7.79,34.87,1.29,8.73,2.34
119950,9.34,-9.66,37.37,1.19,8.73,2.53
119990,5.39,-9.00,38.38,0.93,8.73,2.60
120025,1.53,-9.54,39.66,0.77,8.73,2.50
120060,-2.22,-6.40,40.03,0.77,8.73,2.30
120095,-4.15,-5.75,36.52,0.87,8.73,2.16
120129,-4.70,-5.76,31.91,1.05,8.73,2.12
120164,-4.88,-5.60,27.75,1.10,8.73,2.17
120199,-4.03,-7.63,24.16,1.08,8.73,2.25
120234,-2.39,-4.93,21.43,1.02,8.73,2.30
120269,0.03,-6.86,19.12,0.89,8.73,2.29
120304,2.26,-6.41,19.22,0.80,8.73,2.27
120339,6.22,-4.01,19.58,0.76,8.73,2.12
120375,10.09,-4.16,21.74,0.82,8.73,2.01
120409,12.06,-5.35,24.66,0.92,8.73,1.96
120443,12.93,-4.15,27.84,1.05,8.73,1.91
120478,12.83,-6.31,30.99,1.09,8.73,1.99
120513,11.61,-7.00,34.57,1.10,8.73,2.04
120548,9.10,-7.58,37.00,1.02,8.73,2.04
120583,5.24,-8.76,37.60,1.00,8.73,2.06
120618,2.39,-7.00,38.89,0.96,8.73,2.00
120653,-1.27,-7.57,37.27,0.97,8.73,1.95
120689,-4.24,-5.97,35.35,1.05,8.73,1.93
120723,-5.48,-5.33,31.23,1.04,8.73,1.92
120758,-5.83,-5.61,27.30,1.03,8.73,1.94
120793,-5.01,-3.35,24.24,0.97,8.73,1.91
120828,-5.41,-4.18,21.62,0.94,8.73,1.91
120863,-2.04,-2.38,20.10,0.95,8.73,1.81
120898,1.43,-1.33,18.96,0.95,8.73,1.72
120933,5.46,-1.69,19.54,1.06,8.73,1.69
120968,9.44,-0.52,20.43,1.19,8.73,1.70
121003,11.13,-4.18,23.64,1.29,8.73,1.78
121038,12.65,-4.63,27.02,1.27,8.73,1.87
121073,13.28,-7.87,30.12,1.18,8.73,1.90
121108,11.71,-8.20,33.41,1.07,8.73,1.85
121143,9.60,-6.52,35.86,0.99,8.73,1.69
121178,5.91,-6.46,37.70,1.00,8.73,1.58
121213,3.21,-6.38,37.86,1.16,8.73,1.55
121248,-0.55,-7.20,36.84,1.26,8.73,1.60
121283,-3.63,-6.39,34.62,1.28,8.73,1.68
121319,-5.14,-5.68,30.82,1.23,8.73,1.75
121353,-5.02,-4.81,26.50,1.14,8.73,1.74
121388,-6.41,-4.02,23.67,1.00,8.73,1.70
121423,-4.15,-2.67,20.76,0.99,8.73,1.66
121458,-1.16,-1.39,17.58,0.94,8.73,1.46
121493,2.90,-0.98,15.33,0.97,8.73,1.45
121528,2.82,-0.32,15.71,1.02,8.73,1.44
121563,5.25,-1.87,17.16,1.10,8.73,1.49
121598,7.93,-2.21,17.77,1.15,8.73,1.60
121633,9.38,-5.44,21.30,1.14,8.73,1.72
121668,11.12,-7.16,26.08,0.97,8.73,1.79
121703,13.20,-6.58,30.89,0.79,8.73,1.72
121738,12.12,-6.17,34.95,0.76,8.73,1.66
121773,9.19,-5.37,36.27,0.83,8.73,1.63
121808,5.40,-5.65,35.74,0.92,8.73,1.78
121843,2.26,-7.38,36.72,0.86,8.73,2.10
121878,-0.90,-7.25,35.02,0.76,8.73,2.23
121913,-5.38,-2.34,39.21,0.84,8.73,2.04
121948,-5.65,-4.21,31.86,0.95,8.73,1.93
121983,-8.47,-5.14,30.47,0.78,8.73,1.83
122023,-6.33,-5.14,25.22,0.86,8.73,1.97
122058,-2.28,-3.29,20.60,0.84,8.73,1.93
122093,2.15,-3.97,18.01,0.81,8.73,1.88
122128,2.85,-3.39,16.41,0.78,8.73,1.83
122163,4.94,-4.74,17.17,0.72,8.73,1.87
122198,7.18,-6.93,17.48,0.57,8.73,1.96
122233,10.17,-6.87,20.50,0.33,8.73,1.90
122268,12.29,-6.34,24.83,0.25,8.73,1.72
122303,13.42,-4.60,27.86,0.29,8.73,1.51
122339,12.60,-2.39,31.51,0.51,8.73,1.43
122373,10.41,-4.59,33.77,0.72,8.73,1.62
122408,7.73,-4.73,36.04,0.87,8.73,1.75
122443,4.79,-6.23,37.28,0.84,8.73,1.91
122478,0.88,-6.35,38.07,0.87,8.73,1.95
122513,-1.92,-4.27,37.25,1.04,8.73,1.83
122548,-3.98,-4.22,33.88,1.37,8.73,1.77
122583,-4.93,-6.03,29.32,1.60,8.73,1.90
122618,-6.86,-6.96,25.67,1.71,8.73,2.16
122653,-6.09,-7.94,22.83,1.62,8.73,2.39
122689,-4.33,-8.38,19.17,1.44,8.73,2.49
122723,-1.19,-4.68,18.32,1.22,8.73,2.40
122758,2.23,-3.95,18.87,1.09,8.73,2.27
122793,6.84,-2.48,18.73,1.13,8.73,2.07
122829,11.00,-1.88,21.23,1.27,8.73,1.97
122864,12.61,-1.95,23.51,1.43,8.73,1.95
122898,12.90,-3.90,25.69,1.59,8.73,2.04
122933,12.75,-5.32,28.29,1.51,8.73,2.20
122968,11.24,-6.93,29.73,1.27,8.73,2.26
123004,8.39,-8.07,34.06,1.07,8.73,2.20
123038,5.84,-7.58,36.10,0.93,8.73,1.96
123073,3.37,-5.22,36.53,0.94,8.73,1.77
123108,-0.45,-6.24,36.79,0.99,8.73,1.79
123143,-3.02,-5.89,34.94,0.93,8.73,1.81
123178,-5.54,-4.29,32.66,0.89,8.73,1.81
123213,-5.81,-3.64,29.40,0.98,8.73,1.82
123248,-6.73,-5.27,25.16,1.04,8.73,1.84
123283,-4.49,-2.91,21.89,0.97,8.73,1.86
123319,-3.32,-4.38,18.43,1.02,8.73,1.93
123353,0.49,-2.85,17.48,0.96,8.73,1.92
123388,4.08,-1.70,17.66,0.98,8.73,1.81
123423,7.38,-1.75,18.54,1.05,8.73,1.77
123458,10.20,-3.36,20.13,1.13,8.73,1.78
123493,11.88,-4.80,23.17,1.12,8.73,1.83
123528,12.19,-6.84,26.11,0.98,8.73,1.84
123563,12.85,-7.30,29.62,0.75,8.73,1.74
123598,11.00,-6.41,33.12,0.73,8.73,1.58
123633,9.11,-4.99,36.51,0.79,8.73,1.48
123668,5.41,-6.50,37.24,0.92,8.73,1.52
123703,2.05,-6.28,37.74,1.01,8.73,1.63
123738,-1.00,-6.84,35.70,0.97,8.73,1.73
123773,-4.24,-6.05,34.00,0.81,8.73,1.79
123808,-6.35,-4.94,31.64,0.68,8.73,1.75
123844,-5.26,-2.58,28.46,0.63,8.73,1.65
123878,-5.37,-1.27,25.15,0.63,8.73,1.50
123913,-4.23,0.12,21.72,0.69,8.73,1.44
123948,-3.60,-0.29,19.34,0.87,8.73,1.49
123983,2.13,-2.12,17.60,0.92,8.73,1.57
124018,4.36,-3.03,16.49,0.99,8.73,1.67
124058,6.91,-3.86,18.22,0.93,8.73,1.82
124093,10.08,-4.76,21.90,1.02,8.73,1.81
124128,12.89,-5.89,26.04,1.02,8.73,1.82
124163,13.27,-5.30,28.65,1.01,8.73,1.81
124198,12.06,-7.40,31.18,1.01,8.73,1.84
124233,9.54,-5.87,33.52,0.97,8.73,1.78
124268,7.09,-6.72,35.77,0.99,8.73,1.77
124303,3.69,-7.62,37.79,0.98,8.73,1.82
124339,0.08,-6.64,38.05,0.98,8.73,1.86
124373,-3.01,-6.46,35.49,0.96,8.73,1.90
124408,-4.49,-5.18,32.27,0.93,8.73,1.87
124443,-5.83,-4.39,28.98,0.96,8.73,1.87
124478,-5.83,-4.34,26.14,0.95,8.73,1.86
124513,-4.85,-2.91,22.98,0.98,8.73,1.86
124548,-4.38,-3.00,20.89,0.96,8.73,1.90
124583,-1.82,-4.15,19.87,0.98,8.73,1.87
124619,2.21,-2.14,18.31,0.95,8.73,1.90
124653,7.37,-3.93,19.86,0.91,8.73,1.93
124688,10.78,-5.02,21.68,0.92,8.73,1.91
124723,12.70,-4.12,24.01,0.93,8.73,1.85
124758,12.37,-5.32,27.27,0.93,8.73,1.85
124794,12.31,-6.28,30.15,0.99,8.73,1.89
124829,11.66,-6.81,33.75,0.98,8.73,1.93
124863,8.67,-6.35,36.97,0.93,8.73,1.94
124898,5.33,-7.21,37.34,0.91,8.73,1.94
124933,1.71,-6.62,38.23,0.88,8.73,1.88
124968,-1.62,-6.11,36.04,0.85,8.73,1.85
125004,-3.92,-6.00,32.79,0.83,8.73,1.85
125038,-4.48,-5.23,29.56,0.77,8.73,1.85
125073,-8.33,-1.51,30.12,0.88,8.73,1.79
125108,-2.36,-3.11,24.14,0.84,8.73,1.83
125143,-2.97,-1.39,20.88,0.90,8.73,1.73
125178,-3.07,-0.93,21.10,0.93,8.73,1.61
125213,2.21,-2.32,18.72,0.98,8.73,1.57
125248,6.47,-0.96,18.94,1.08,8.73,1.55
125283,8.78,-1.48,18.74,1.15,8.73,1.61
125319,10.51,-2.28,21.93,1.32,8.73,1.66
125353,11.56,-6.52,24.95,1.19,8.73,1.75
125388,12.65,-7.74,29.76,1.09,8.73,1.77
125423,12.58,-7.75,33.87,0.93,8.73,1.67
125458,8.69,-6.70,36.03,0.88,8.73,1.47
125493,5.86,-5.78,36.90,0.94,8.73,1.38
125528,3.02,-6.54,38.55,1.07,8.73,1.55
125563,-0.37,-6.62,38.42,1.13,8.73,1.62
125598,-4.14,-6.51,37.02,1.02,8.73,1.75
125633,-5.64,-6.35,33.66,0.87,8.73,1.83
125668,-5.71,-4.24,29.85,0.81,8.73,1.78
125703,-6.30,-3.50,27.03,0.70,8.73,1.71
125738,-5.38,-2.09,23.90,0.80,8.73,1.73
125773,-3.08,-2.59,21.81,0.86,8.73,1.77
125808,0.87,-4.26,20.48,0.89,8.73,1.88
125844,6.57,-4.51,20.58,0.91,8.73,1.96
125879,9.13,-4.16,21.16,0.88,8.73,1.97
125913,12.15,-6.66,23.53,0.89,8.73,1.95
125948,14.20,-4.99,26.08,0.92,8.73,1.91
125983,13.83,-5.01,29.42,0.98,8.73,1.91
126018,12.14,-5.85,32.23,1.06,8.73,2.00
126053,10.01,-6.61,34.37,1.04,8.73,2.10
126093,6.20,-8.27,37.11,1.02,8.73,2.17
126128,3.57,-8.13,37.88,0.97,8.73,2.12
126163,0.17,-5.33,39.37,1.00,8.73,1.93
126198,-1.28,-5.26,34.17,1.05,8.73,1.93
126233,-5.16,-6.68,33.74,1.07,8.73,1.93
126268,-2.97,-4.39,29.18,1.11,8.73,2.00
126303,-4.35,-7.10,24.15,1.10,8.73,2.02
126339,-3.33,-2.60,22.36,1.00,8.73,1.99
126373,-3.09,-3.86,20.13,0.95,8.73,1.92
126408,-0.20,-2.75,19.15,0.99,8.73,1.87
126443,4.11,-2.28,20.00,0.97,8.73,1.84
126478,7.37,-3.11,19.52,1.01,8.73,1.84
126514,10.24,-2.78,21.32,1.10,8.73,1.79
126548,12.26,-5.70,23.89,1.12,8.73,1.81
126583,12.96,-3.91,28.22,1.07,8.73,1.83
126618,11.96,-7.40,31.03,1.02,8.73,1.86
126654,10.44,-7.88,35.65,0.96,8.73,1.74
126688,8.61,-6.63,38.22,0.92,8.73,1.54
126723,4.14,-6.42,39.25,1.06,8.73,1.36
126758,1.63,-5.61,39.33,1.32,8.73,1.35
126793,-2.05,-6.68,36.10,1.39,8.73,1.51
126828,-5.29,-7.57,35.20,1.30,8.73,1.70
126862,-5.88,-5.13,31.28,1.08,8.73,1.79
126897,-6.59,-4.14,27.82,0.88,8.73,1.76
126932,-3.76,-1.32,24.98,0.85,8.73,1.62
126967,-3.06,-0.55,21.42,0.88,8.73,1.54
127002,1.91,-0.50,20.30,0.99,8.73,1.49
127037,5.05,-0.70,19.93,1.07,8.73,1.50
127072,5.40,-2.90,18.80,1.09,8.73,1.64
127107,8.55,-4.01,22.33,1.08,8.73,1.75
127142,11.86,-6.49,23.42,1.01,8.73,1.82
127177,13.15,-4.27,27.66,0.90,8.73,1.81
127212,13.68,-5.23,31.98,0.87,8.73,1.83
127247,11.96,-6.27,35.01,0.94,8.73,1.89
127282,8.18,-6.11,37.07,0.99,8.73,1.91
127318,5.41,-6.58,38.30,0.97,8.73,1.97
127352,1.29,-8.23,40.33,0.91,8.73,2.03
127387,-1.63,-4.31,38.81,0.97,8.73,1.91
127422,-3.07,-6.45,34.59,1.14,8.73,1.88
127457,-5.67,-6.29,31.72,1.28,8.73,1.96
127492,-4.18,-5.64,28.06,1.28,8.73,2.08
127527,-5.06,-7.83,23.50,1.26,8.73,2.17
127562,-3.76,-4.22,21.65,1.12,8.73,2.21
127597,-0.21,-5.13,19.84,1.03,8.73,2.19
127632,2.18,-4.51,18.32,1.00,8.73,2.11
127667,6.29,-2.30,20.34,1.05,8.73,1.99
127702,9.46,-3.68,21.34,1.13,8.73,1.93
127737,10.32,-4.65,25.12,1.24,8.73,1.96
127772,13.46,-4.58,28.64,1.23,8.73,2.02
127807,12.53,-7.86,31.72,1.16,8.73,2.12
127843,11.11,-7.90,35.76,1.07,8.73,2.11
127877,8.71,-8.06,39.08,0.95,8.73,2.02
127912,5.65,-7.13,39.80,0.93,8.73,1.92
127947,1.68,-7.27,38.65,0.96,8.73,1.86
127982,-1.51,-5.00,37.61,0.91,8.73,1.84
128017,-3.82,-6.62,33.59,0.87,8.73,1.84
128052,-5.78,-5.61,31.31,0.72,8.73,1.81
128088,-3.72,-3.63,27.87,0.61,8.73,1.74
128127,-7.92,0.12,26.04,0.71,8.73,1.66
128163,-5.98,-1.38,22.60,0.85,8.73,1.61
128197,-0.28,-0.86,21.39,0.98,8.73,1.58
128232,2.28,-1.43,20.20,1.02,8.73,1.66
128267,7.92,-4.30,20.81,1.09,8.73,1.71
128302,10.58,-3.98,22.18,1.16,8.73,1.75
128338,12.03,-5.43,25.46,1.09,8.73,1.80
128372,12.43,-5.40,28.16,1.08,8.73,1.85
128407,12.10,-6.20,31.90,1.07,8.73,1.85
128442,12.75,-8.36,36.45,1.05,8.73,1.89
128477,8.55,-7.53,38.62,1.05,8.73,1.79
128512,6.17,-6.82,38.32,1.08,8.73,1.69
128547,0.55,-6.40,38.48,1.16,8.73,1.67
128582,-1.85,-7.14,37.83,1.29,8.73,1.72
128617,-3.60,-5.79,33.96,1.26,8.73,1.80
128652,-5.52,-6.58,31.44,1.20,8.73,1.93
128687,-6.76,-4.89,28.54,1.05,8.73,1.89
128722,-4.27,-4.93,26.14,0.97,8.73,1.92
128758,-3.54,-3.10,22.33,0.97,8.73,1.84
128792,0.68,-1.20,21.10,0.97,8.73,1.74
128827,4.26,-1.80,20.09,1.00,8.73,1.71
128862,8.16,-2.97,21.63,1.09,8.73,1.74
128897,11.04,-2.27,22.63,1.17,8.73,1.75
128932,12.04,-5.20,24.40,1.15,8.73,1.83
128968,12.45,-5.98,28.21,1.07,8.73,1.86
129002,13.25,-5.97,32.07,1.00,8.73,1.85
129037,11.61,-5.68,35.14,0.97,8.73,1.87
129072,8.00,-6.83,37.58,1.03,8.73,1.94
129107,5.33,-7.34,38.68,1.02,8.73,2.09
129142,1.23,-8.81,37.81,0.98,8.73,2.17
129177,-1.08,-5.35,35.94,0.94,8.73,2.13
129212,-4.37,-5.85,33.79,1.04,8.73,2.04
129247,-5.68,-5.76,30.99,1.20,8.73,2.06
129283,-7.27,-6.23,28.98,1.27,8.73,2.16
129318,-5.94,-7.36,25.45,1.26,8.73,2.30
129352,-4.64,-7.15,22.10,1.16,8.73,2.43
129387,2.31,-7.54,20.99,0.98,8.73,2.48
129422,4.43,-5.71,18.28,0.86,8.73,2.32
129457,7.17,-4.14,19.83,0.76,8.73,2.13
129492,9.74,-5.52,20.49,0.80,8.73,2.02
129527,11.90,-4.80,23.43,0.77,8.73,1.93
129562,12.18,-5.94,25.87,0.72,8.73,1.88
129597,12.07,-5.96,29.45,0.62,8.73,1.76
129632,12.47,-7.47,32.83,0.52,8.73,1.57
129667,9.13,-5.37,36.74,0.55,8.73,1.24
129702,6.16,-4.24,38.05,0.70,8.73,1.08
129737,3.08,-6.10,38.47,0.91,8.73,1.27
129772,0.17,-3.65,35.95,0.89,8.73,1.46
129807,-3.59,-6.29,35.41,0.78,8.73,1.58
129843,-5.63,-2.68,33.69,0.77,8.73,1.55
129877,-6.43,-2.84,30.19,0.81,8.73,1.50
129912,-6.13,-0.68,27.23,0.97,8.73,1.47
129947,-4.10,-1.42,23.65,1.16,8.73,1.58
129982,-0.17,-2.07,21.38,1.29,8.73,1.64
130017,3.11,-1.41,18.62,1.36,8.73,1.62
130052,6.95,-1.86,17.77,1.47,8.73,1.63
130087,7.28,-2.76,17.34,1.59,8.73,1.76
130122,10.10,-1.43,22.97,1.76,8.73,1.88
130162,11.82,-4.85,26.17,1.94,8.73,2.12
130197,14.27,-7.51,28.43,1.90,8.73,2.46
130232,11.99,-9.83,31.47,1.68,8.73,2.74
130267,8.41,-11.30,33.47,1.28,8.73,2.79
130302,7.35,-12.06,37.69,0.98,8.73,2.80
130337,3.06,-10.41,36.69,0.67,8.73,2.68
130372,-0.50,-8.07,38.63,0.53,8.73,2.42
130407,-4.31,-7.09,36.18,0.50,8.73,2.14
130442,-4.53,-5.95,32.08,0.50,8.73,1.92
130477,-6.96,-4.21,31.29,0.57,8.73,1.72
130512,-6.35,-4.33,27.38,0.59,8.73,1.56
130547,-6.01,-1.95,23.79,0.58,8.73,1.33
130582,-2.74,3.95,21.99,0.75,8.73,0.97
130617,2.89,5.12,19.46,1.15,8.73,0.70
130652,5.08,5.63,19.97,1.64,8.73,0.59
130687,9.72,1.85,20.22,2.02,8.73,0.86
130722,9.53,-3.66,23.48,2.11,8.73,1.42
130757,13.01,-9.98,27.66,1.92,8.73,1.83
130792,14.28,-6.68,30.42,1.78,8.73,2.16
130827,10.87,-10.94,33.53,1.67,8.73,2.47
130862,9.36,-12.63,38.26,1.49,8.73,2.67
130897,6.39,-11.48,40.16,1.24,8.73,2.81
130932,2.12,-14.64,39.32,0.90,8.73,2.75
130967,-1.35,-8.81,39.33,0.67,8.73,2.58
131002,-2.99,-8.87,34.62,0.44,8.73,2.38
131037,-4.74,-6.41,31.96,0.37,8.73,2.13
131072,-7.58,-5.32,30.08,0.30,8.73,1.82
131107,-2.97,-0.95,26.94,0.28,8.73,1.57
131142,-3.68,-1.16,22.97,0.41,8.73,1.22
131177,-0.17,3.72,20.96,0.67,8.73,0.95
131213,3.67,3.57,20.73,1.09,8.73,0.70
131247,6.16,5.00,22.39,1.63,8.73,0.75
131282,11.36,-0.36,22.54,1.92,8.73,1.08
131318,9.97,-4.66,25.25,2.14,8.73,1.45
131352,13.25,-7.24,30.78,1.95,8.73,1.85
131387,13.47,-9.51,35.80,1.87,8.73,2.21
131422,10.37,-11.19,38.96,1.75,8.73,2.49
131458,6.77,-10.85,41.68,1.49,8.73,2.59
131492,2.49,-12.50,40.17,1.16,8.73,2.67
131527,-0.63,-11.49,39.26,1.05,8.73,2.57
131562,-3.22,-8.54,36.62,0.87,8.73,2.43
131597,-2.54,-8.75,30.11,0.71,8.73,2.33
131632,-4.42,-8.67,26.86,0.54,8.73,2.17
131667,-7.14,-3.60,25.40,0.40,8.73,1.91
131702,-2.66,-3.24,21.44,0.30,8.73,1.58
131737,-2.69,0.51,18.96,0.44,8.73,1.27
131772,1.53,-0.65,18.89,0.61,8.73,1.21
131807,5.78,-1.57,19.12,0.80,8.73,1.28
131842,9.70,-3.25,18.74,0.88,8.73,1.42
131877,11.31,-6.53,21.61,0.82,8.73,1.49
131912,12.01,-6.58,24.85,0.82,8.73,1.47
131947,13.21,-5.84,28.17,0.74,8.73,1.39
131982,11.39,-6.40,31.08,0.86,8.73,1.37
132017,9.29,-6.52,32.74,0.91,8.73,1.39
132052,7.08,-6.72,34.57,1.05,8.73,1.50
132087,3.00,-8.27,35.72,1.05,8.73,1.72
132122,0.62,-8.49,35.45,0.95,8.73,1.95
132157,-2.34,-8.51,33.56,0.66,8.73,2.10
132197,-4.97,-7.16,30.90,0.28,8.73,2.07
132232,-7.40,-4.03,28.99,0.10,8.73,1.90
132267,-7.72,-1.89,25.74,0.08,8.73,1.67
132302,-5.64,-0.18,22.75,0.22,8.73,1.49
132337,-4.41,-0.88,19.94,0.44,8.73,1.51
132372,-0.65,-2.54,17.52,0.64,8.73,1.66
132407,1.85,-5.10,17.95,0.69,8.73,1.79
132442,4.03,-4.70,18.57,0.63,8.73,1.87
132477,8.91,-4.59,19.91,0.69,8.73,1.82
132512,12.38,-3.29,22.73,0.84,8.73,1.72
132547,13.16,-3.84,26.44,1.09,8.73,1.73
132582,13.31,-3.72,29.23,1.25,8.73,1.81
132617,11.36,-7.31,31.52,1.28,8.73,1.95
132652,9.57,-7.72,34.18,1.22,8.73,2.03
132687,5.77,-8.66,35.83,1.11,8.73,2.07
132722,2.51,-7.79,36.51,1.00,8.73,2.09
132757,-0.44,-8.23,36.58,0.94,8.73,2.11
132792,-3.83,-6.83,35.49,0.86,8.73,2.11
132828,-5.59,-6.90,32.72,0.79,8.73,2.12
132862,-6.52,-5.36,29.32,0.79,8.73,2.07
132897,-7.28,-5.27,26.46,0.85,8.73,2.10
132932,-5.86,-4.94,22.88,0.97,8.73,2.27
132968,-3.27,-8.57,19.99,0.96,8.73,2.53
133002,1.76,-10.91,17.89,0.79,8.73,2.74
133037,6.43,-8.26,18.33,0.52,8.73,2.70
133072,9.06,-8.44,18.55,0.36,8.73,2.48
133107,11.23,-2.97,21.83,0.47,8.73,2.15
133142,12.16,-3.54,24.15,0.76,8.73,2.00
133177,12.33,-3.00,27.35,1.04,8.73,2.05
133212,12.29,-5.04,30.83,1.18,8.73,2.28
133247,11.22,-7.94,34.15,1.21,8.73,2.58
133282,7.93,-8.70,36.21,1.06,8.73,2.81
133318,4.28,-11.00,36.77,0.80,8.73,3.03
133352,1.63,-7.70,36.74,0.44,8.73,3.03
133387,-3.10,-6.58,37.14,0.32,8.73,2.62
133422,-4.67,-2.30,35.55,0.57,8.73,2.22
133457,-5.07,-6.07,31.37,0.96,8.73,2.09
133492,-6.95,-6.09,28.23,1.21,8.73,2.19
133527,-5.60,-8.40,24.71,1.15,8.73,2.35
133563,-4.20,-5.94,21.36,1.02,8.73,2.35
133597,0.34,-5.72,19.32,0.88,8.73,2.23
133632,4.91,-5.91,19.79,0.82,8.73,2.14
133667,6.76,-3.46,18.46,0.80,8.73,1.96
133702,9.86,-3.67,20.69,0.83,8.73,1.88
133737,11.96,-5.49,25.26,0.90,8.73,1.89
133772,13.74,-4.23,28.13,0.99,8.73,1.87
133808,12.28,-5.75,30.88,1.05,8.73,1.97
133843,11.16,-6.53,33.81,1.06,8.73,2.03
133877,8.66,-8.25,36.15,1.02,8.73,2.07
133913,5.54,-8.23,38.29,1.00,8.73,1.99
133947,2.77,-6.26,38.82,1.00,8.73,1.92
133982,-2.50,-7.64,39.02,1.02,8.73,1.90
134017,-3.85,-6.34,34.75,0.97,8.73,1.97
134052,-4.67,-5.75,31.07,0.87,8.73,1.98
134087,-5.29,-4.77,27.27,0.80,8.73,1.92
134122,-5.76,-2.54,24.88,0.79,8.73,1.88
134157,-3.56,-3.49,21.98,0.84,8.73,1.89
134192,-1.21,-3.75,19.74,0.89,8.73,1.94
134232,2.99,-5.64,17.79,0.82,8.73,2.10
134267,5.69,-4.72,19.15,0.72,8.73,2.08
134302,9.90,-5.20,19.86,0.71,8.73,1.96
134338,11.69,-3.16,22.89,0.83,8.73,1.81
134372,12.34,-3.12,25.57,0.92,8.73,1.75
134407,11.25,-2.25,27.20,0.95,8.73,1.81
134442,10.52,-7.11,31.60,1.18,8.73,1.93
134477,8.78,-7.02,35.04,1.06,8.73,1.93
134512,6.15,-5.68,36.85,1.02,8.73,1.78
134547,3.22,-5.67,37.41,1.01,8.73,1.74
134582,-0.70,-6.87,36.80,1.14,8.73,1.63
134618,-2.61,-5.37,34.22,1.27,8.73,1.65
134652,-6.00,-6.78,31.52,1.29,8.73,1.77
134687,-5.08,-5.88,28.04,1.17,8.73,1.89
134722,-5.28,-4.51,25.07,1.09,8.73,1.94
134758,-6.34,-4.89,21.98,0.97,8.73,1.98
134792,-2.42,-3.24,20.07,1.00,8.73,2.03
134828,1.03,-4.85,17.31,0.93,8.73,2.16
134862,4.28,-6.41,17.11,0.82,8.73,2.19
134898,8.13,-6.05,19.58,0.63,8.73,2.20
134932,11.22,-6.01,20.00,0.57,8.73,2.08
134967,13.10,-4.25,22.54,0.51,8.73,1.97
135002,12.24,-5.79,25.76,0.59,8.73,1.87
135037,11.65,-5.33,30.21,0.70,8.73,1.81
135072,12.19,-5.14,33.90,0.74,8.73,1.85
135107,8.30,-5.60,36.43,0.80,8.73,1.84
135142,5.44,-5.27,36.92,0.81,8.73,1.85
135177,1.75,-5.96,37.12,0.86,8.73,1.83
135213,-1.99,-4.55,38.61,0.92,8.73,1.70
135247,-4.35,-3.89,35.79,1.15,8.73,1.65
135282,-5.22,-4.99,30.88,1.30,8.73,1.71
135318,-7.68,-5.56,27.09,1.34,8.73,1.82
135352,-5.71,-3.65,23.92,1.31,8.73,1.90
135387,-2.92,-5.46,20.45,1.23,8.73,1.98
135422,-2.57,-2.34,17.55,1.14,8.73,1.89
135457,0.40,-2.60,17.22,1.14,8.73,1.90
135492,5.96,-1.70,19.13,1.23,8.73,1.79
135528,8.54,-1.78,19.01,1.34,8.73,1.81
135562,10.82,-4.17,20.70,1.28,8.73,1.97
135597,12.11,-7.58,22.41,1.11,8.73,2.12
135632,12.76,-7.81,26.67,0.92,8.73,2.14
135667,11.73,-6.35,30.06,0.91,8.73,2.24
135702,10.50,-7.86,33.45,0.80,8.73,2.31
135737,7.64,-7.82,35.36,0.77,8.73,2.46
135772,3.84,-7.88,35.69,0.52,8.73,2.51
135807,0.00,-8.31,35.26,0.19,8.73,2.46
135842,-1.85,-4.84,34.55,0.02,8.73,2.26
135877,-4.89,-3.18,33.35,0.17,8.73,1.91
135912,-6.72,-2.19,30.64,0.29,8.73,1.65
135947,-5.10,-0.59,26.09,0.47,8.73,1.45
135982,-4.47,-0.95,21.99,0.55,8.73,1.26
136017,-3.15,1.82,19.60,0.71,8.73,1.08
136052,-2.15,2.52,18.70,0.94,8.73,0.95
136087,1.71,1.65,19.17,1.17,8.73,0.95
136122,6.10,2.21,18.04,1.46,8.73,1.03
136157,9.46,-0.54,19.35,1.76,8.73,1.21
136192,11.28,-6.20,23.59,1.73,8.73,1.56
136227,13.21,-5.57,27.69,1.68,8.73,1.83
136267,12.93,-9.05,30.17,1.57,8.73,2.09
136302,11.51,-8.84,33.53,1.33,8.73,2.20
136338,8.71,-10.74,36.16,1.19,8.73,2.39
136372,5.10,-10.53,37.06,1.00,8.73,2.50
136407,1.46,-10.33,37.47,0.71,8.73,2.54
136442,-1.62,-9.36,36.95,0.47,8.73,2.49
136477,-4.80,-7.41,35.09,0.34,8.73,2.26
136512,-7.89,-6.45,32.60,0.14,8.73,2.03
136547,-5.30,-2.25,29.54,0.18,8.73,1.76
136582,-6.21,-2.10,26.49,0.31,8.73,1.54
136617,-4.42,-0.56,23.97,0.45,8.73,1.29
136652,0.81,-0.16,21.06,0.74,8.73,1.24
136687,2.97,-1.14,20.63,0.96,8.73,1.23
136723,7.42,-0.15,20.77,1.19,8.73,1.26
136757,10.04,-2.13,21.58,1.38,8.73,1.39
136792,11.64,-4.96,25.91,1.52,8.73,1.58
136828,11.15,-6.53,29.41,1.52,8.73,1.76
136862,12.86,-8.95,31.33,1.43,8.73,1.92
136897,10.72,-10.54,34.36,1.23,8.73,2.01
136932,7.94,-10.07,37.08,1.12,8.73,1.97
136967,4.88,-9.16,36.95,0.99,8.73,2.02
137003,0.35,-11.51,36.03,0.87,8.73,2.12
137037,-2.26,-8.33,36.14,0.65,8.73,2.15
137072,-5.18,-7.68,33.73,0.41,8.73,2.12
137107,-6.68,-4.22,31.07,0.25,8.73,1.90
137142,-7.53,-2.90,28.67,0.21,8.73,1.69
137177,-6.35,-2.32,26.56,0.37,8.73,1.48
137212,-2.40,0.59,23.37,0.64,8.73,1.39
137247,1.02,0.38,21.47,0.82,8.73,1.28
137283,3.51,-1.78,20.76,1.07,8.73,1.32
137318,7.48,-0.34,20.41,1.42,8.73,1.29
137352,10.95,-0.13,22.66,1.70,8.73,1.39
137387,12.93,-3.78,26.87,1.91,8.73,1.66
137423,13.56,-8.83,27.94,2.05,8.73,2.00
137457,12.35,-9.64,33.45,1.89,8.73,2.33
137492,10.67,-10.52,36.27,1.58,8.73,2.56
137527,8.17,-11.56,38.23,1.30,8.73,2.63
137562,3.55,-11.44,39.64,0.97,8.73,2.70
137597,-0.42,-12.95,39.93,0.77,8.73,2.67
137632,-2.60,-8.86,38.54,0.46,8.73,2.58
137667,-5.47,-9.25,34.56,0.08,8.73,2.39
137702,-5.79,-4.45,31.17,-0.12,8.73,2.06
137737,-6.53,-2.73,27.72,-0.17,8.73,1.59
137772,-5.60,0.41,24.36,0.03,8.73,1.26
137807,-2.49,1.24,21.99,0.35,8.73,1.19
137842,3.38,-1.00,21.12,0.63,8.73,1.17
137877,5.88,-0.83,21.01,0.78,8.73,1.29
137912,9.38,-6.05,22.21,0.88,8.73,1.45
137947,12.91,-4.48,26.60,1.05,8.73,1.48
137982,13.94,-4.64,29.15,1.18,8.73,1.52
138017,13.45,-6.19,31.73,1.36,8.73,1.69
138052,11.79,-8.34,34.41,1.50,8.73,1.93
138087,8.43,-8.85,37.23,1.51,8.73,2.19
138122,5.67,-10.21,39.15,1.42,8.73,2.42
138157,1.83,-11.17,40.23,1.28,8.73,2.51
138192,-1.05,-9.22,38.69,1.24,8.73,2.48
138227,-4.21,-8.34,36.85,1.30,8.73,2.41
138262,-3.81,-8.80,30.77,1.36,8.73,2.43
138302,-5.04,-9.72,25.87,1.47,8.73,2.60
138338,-3.59,-10.56,22.94,1.37,8.73,2.88
138372,-3.43,-12.64,19.65,1.11,8.73,2.93
138407,0.71,-7.03,19.27,0.77,8.73,2.61
138442,3.36,-4.96,20.38,0.60,8.73,2.21
138477,6.28,-3.51,20.45,0.71,8.73,1.89
138512,9.65,-2.31,21.68,0.78,8.73,1.79
138547,10.60,-5.33,24.45,0.83,8.73,1.82
138582,11.73,-4.59,28.32,0.82,8.73,1.78
138617,13.28,-3.46,33.17,0.92,8.73,1.86
138652,11.08,-7.58,35.72,1.07,8.73,1.99
138687,8.39,-6.53,39.09,1.13,8.73,2.20
138722,4.73,-7.38,40.60,0.99,8.73,2.32
138757,1.07,-8.00,41.91,0.87,8.73,2.28
138793,-1.64,-5.41,38.32,1.02,8.73,2.08
138828,-4.50,-5.45,36.17,1.34,8.73,1.96
138862,-7.64,-7.12,33.08,1.53,8.73,2.08
138898,-5.89,-8.71,29.16,1.61,8.73,2.34
138932,-6.23,-10.56,25.82,1.50,8.73,2.49
138967,-5.10,-5.68,23.96,1.21,8.73,2.47
139002,-1.79,-6.73,22.82,1.08,8.73,2.32
139037,3.58,-3.79,23.52,1.01,8.73,2.22
139072,8.74,-5.18,24.27,1.01,8.73,2.19
139107,12.04,-5.86,26.21,1.09,8.73,2.14
139142,14.02,-7.83,30.75,1.03,8.73,2.15
139177,13.84,-6.40,34.58,1.05,8.73,2.15
139212,12.43,-5.99,37.89,1.04,8.73,2.26
139247,9.42,-8.86,39.99,0.98,8.73,2.27
139282,6.26,-8.19,41.40,0.89,8.73,2.24
139317,2.63,-8.37,43.53,0.83,8.73,2.06
139352,-1.19,-7.98,42.77,0.89,8.73,1.96
139387,-3.41,-5.97,39.96,0.94,8.73,1.95
139422,-4.75,-6.79,35.75,0.82,8.73,1.93
139458,-4.74,-3.97,32.14,0.79,8.73,1.88
139493,-5.72,-2.44,28.49,0.64,8.73,1.64
139527,-4.15,1.44,27.33,0.79,8.73,1.47
139563,0.71,0.78,25.18,1.00,8.73,1.39
139597,5.21,0.34,24.61,1.22,8.73,1.47
139632,9.61,-2.65,25.03,1.31,8.73,1.65
139667,10.94,-5.84,27.24,1.37,8.73,1.80
139702,12.65,-7.04,30.36,1.29,8.73,1.91
139737,12.32,-6.58,33.77,1.24,8.73,1.94
139772,12.59,-6.16,38.54,1.21,8.73,2.02
139807,11.00,-8.89,42.19,1.16,8.73,1.99
139842,7.34,-7.30,41.69,1.14,8.73,1.96
139877,1.95,-8.25,44.63,1.11,8.73,1.95
139912,-0.59,-6.84,40.30,1.21,8.73,1.93
139948,-3.50,-7.66,38.21,1.33,8.73,1.98
139982,-3.84,-7.03,35.11,1.21,8.73,2.07
140017,-6.99,-6.90,32.50,1.13,8.73,2.11
140052,-4.08,-4.27,29.54,0.99,8.73,2.12
140087,-2.93,-5.29,25.32,0.97,8.73,2.04
140122,0.93,-2.24,24.75,0.98,8.73,1.97
140157,5.88,-3.88,24.47,1.00,8.73,1.92
140192,8.55,-3.09,23.82,1.08,8.73,1.88
140227,11.41,-3.56,24.74,1.18,8.73,1.89
140262,12.90,-6.21,28.42,1.15,8.73,1.93
140297,13.47,-5.57,32.94,1.12,8.73,1.99
140337,12.12,-5.99,36.96,1.20,8.73,2.04
140372,9.87,-8.20,40.02,1.13,8.73,2.06
140407,5.84,-8.07,40.89,1.12,8.73,2.02
140442,2.76,-8.00,42.54,1.13,8.73,2.00
140477,-0.24,-7.92,39.39,1.21,8.73,1.95
140512,-3.23,-3.91,38.03,1.30,8.73,1.94
140547,-4.68,-8.26,33.58,1.25,8.73,2.00
140582,-7.04,-5.22,33.00,1.17,8.73,2.05
140617,-6.68,-6.87,28.73,0.96,8.73,1.98
140652,-3.10,-2.91,25.44,0.97,8.73,1.95
140687,0.71,-2.21,23.26,0.97,8.73,1.85
140722,4.69,-4.27,22.94,1.03,8.73,1.83
140757,8.03,-3.58,22.88,0.97,8.73,1.92
140792,10.92,-6.34,24.88,0.90,8.73,1.96
140828,13.01,-7.39,28.13,0.76,8.73,1.97
140862,13.20,-7.55,31.77,0.66,8.73,1.86
140897,12.51,-5.18,35.92,0.76,8.73,1.78
140932,10.76,-6.07,38.82,0.81,8.73,1.78
140967,6.94,-7.27,40.02,0.88,8.73,1.81
141002,3.46,-7.19,41.90,0.95,8.73,1.85
141037,0.21,-8.51,41.51,0.98,8.73,1.95
141072,-2.96,-5.53,40.07,0.91,8.73,2.00
141108,-4.78,-5.03,36.48,0.94,8.73,1.96
141142,-5.55,-5.00,32.37,0.95,8.73,1.94
141177,-5.86,-3.77,28.97,0.99,8.73,1.92
141212,-3.85,-3.43,25.11,1.12,8.73,2.06
141247,0.39,-5.69,22.57,1.13,8.73,2.14
141282,2.92,-5.42,22.05,1.01,8.73,2.20
141318,6.82,-4.43,21.40,0.96,8.73,2.12
141352,10.26,-2.93,23.84,1.12,8.73,2.01
141387,12.12,-3.23,27.83,1.32,8.73,1.99
141422,13.04,-3.71,30.65,1.50,8.73,2.10
141457,12.27,-6.53,32.86,1.43,8.73,2.36
141492,11.39,-10.59,37.99,1.32,8.73,2.44
141527,8.65,-8.77,41.09,1.07,8.73,2.32
141562,5.01,-8.53,41.63,0.92,8.73,2.25
141597,1.16,-7.71,42.33,0.90,8.73,2.15
141632,-1.68,-6.74,39.37,0.94,8.73,2.07
141667,-4.56,-7.03,35.93,1.03,8.73,2.01
141702,-5.06,-5.32,32.01,0.97,8.73,1.99
141737,-7.26,-4.22,29.35,1.05,8.73,2.02
141772,-4.61,-5.31,26.09,1.06,8.73,2.10
141807,-1.94,-5.13,23.16,1.06,8.73,2.11
141842,1.41,-5.04,22.26,1.02,8.73,2.11
141878,6.65,-5.81,23.20,1.03,8.73,2.07
141912,10.21,-5.20,23.18,0.94,8.73,2.12
141947,11.76,-6.35,25.88,1.00,8.73,2.10
141982,12.49,-6.64,29.40,1.01,8.73,2.10
142017,13.76,-7.45,32.98,1.04,8.73,2.12
142052,11.51,-7.82,36.57,1.12,8.73,2.27
142087,10.06,-7.92,39.70,1.04,8.73,2.37
142122,5.92,-8.20,40.49,0.90,8.73,2.40
142157,2.40,-9.35,41.36,0.74,8.73,2.42
142192,-0.86,-8.75,40.38,0.50,8.73,2.43
142227,-3.37,-6.29,37.66,0.31,8.73,2.28
142262,-4.52,-4.02,33.96,0.14,8.73,2.08
142297,-4.78,-2.58,30.20,0.17,8.73,1.86
142333,-4.52,-1.28,27.08,0.23,8.73,1.65
142372,-2.38,2.16,24.10,0.39,8.73,1.44
142407,0.06,-0.42,21.57,0.61,8.73,1.40
142442,4.56,-2.15,22.11,0.77,8.73,1.52
142477,8.72,-5.15,23.57,0.80,8.73,1.63
142512,11.03,-3.51,25.57,0.86,8.73,1.58
142547,13.24,-3.89,27.90,0.95,8.73,1.55
142582,13.23,-6.41,31.03,1.05,8.73,1.50
142617,11.94,-5.43,34.31,1.14,8.73,1.45
142652,11.08,-6.34,37.06,1.05,8.73,1.21
142687,7.66,-4.54,40.19,1.22,8.73,0.82
142722,3.41,-4.95,40.72,1.71,8.73,0.52
142757,0.84,-5.28,41.96,2.29,8.73,0.64
142792,-2.73,-7.59,38.68,2.58,8.73,1.07
142827,-5.77,-11.33,35.47,2.44,8.73,1.64
142862,-8.29,-9.55,32.96,2.04,8.73,2.02
142897,-7.87,-6.43,30.05,1.67,8.73,2.13
142932,-5.43,-6.01,26.51,1.43,8.73,2.17
142967,-0.57,-3.28,23.93,1.35,8.73,2.08
143002,3.00,-4.45,23.12,1.27,8.73,2.08
143037,7.34,-5.13,21.60,1.24,8.73,2.13
143073,9.86,-5.47,23.09,1.21,8.73,2.15
143107,11.88,-5.78,26.71,1.05,8.73,2.20
143142,13.04,-5.55,29.42,1.04,8.73,2.20
143177,13.48,-6.37,33.00,1.14,8.73,2.24
143212,12.40,-6.74,37.49,1.11,8.73,2.33
143247,8.06,-7.95,39.91,0.96,8.73,2.27
143282,5.43,-7.68,39.85,0.87,8.73,2.20
143318,1.58,-7.57,39.53,0.83,8.73,1.98
143352,-1.40,-4.12,38.07,1.00,8.73,1.74
143387,-4.26,-8.35,34.29,1.13,8.73,1.77
143422,-5.37,-5.04,32.23,1.02,8.73,1.84
143457,-7.51,-2.97,30.84,0.92,8.73,1.76
143492,-2.43,-1.92,27.60,0.90,8.73,1.74
143527,-2.83,0.60,23.76,1.00,8.73,1.64
143562,1.43,0.70,22.70,1.07,8.73,1.35
143597,5.72,1.33,20.54,1.19,8.73,1.29
143632,9.12,0.68,22.66,1.35,8.73,1.34
143667,10.95,-2.74,23.14,1.49,8.73,1.50
143702,12.34,-4.72,25.11,1.42,8.73,1.67
143737,12.71,-7.83,28.91,1.28,8.73,1.81
143772,12.22,-7.49,32.63,1.18,8.73,1.80
143807,11.27,-6.83,35.75,1.00,8.73,1.65
143842,8.95,-6.53,38.41,1.04,8.73,1.42
143877,5.13,-5.36,39.86,1.26,8.73,1.21
143912,1.44,-4.86,40.30,1.60,8.73,1.20
143947,-2.11,-7.90,37.84,1.85,8.73,1.36
143982,-4.96,-6.79,36.32,1.94,8.73,1.66
144017,-6.99,-7.15,32.62,1.86,8.73,1.94
144052,-6.95,-7.94,29.26,1.81,8.73,2.25
144087,-4.21,-9.19,25.05,1.69,8.73,2.41
144122,-3.03,-5.07,22.58,1.45,8.73,2.45
144157,1.34,-6.45,21.49,1.26,8.73,2.34
144192,5.78,-3.45,22.50,1.22,8.73,2.11
144226,9.24,0.29,24.08,1.32,8.73,1.94
144261,13.59,-0.60,22.90,1.58,8.73,1.89
144296,11.94,-3.87,28.44,1.76,8.73,2.05
144332,14.62,-5.77,29.94,1.72,8.73,2.24
144366,12.24,-8.31,32.59,1.53,8.73,2.45
144406,9.53,-7.60,34.93,1.20,8.73,2.42
144441,7.49,-8.10,37.62,1.02,8.73,2.26
144476,3.63,-8.38,38.81,0.96,8.73,2.02
144511,0.00,-5.77,39.69,1.00,8.73,1.91
144546,-2.35,-6.53,37.36,1.18,8.73,1.90
144581,-5.47,-6.05,34.45,1.20,8.73,1.93
144616,-5.92,-6.24,31.33,1.23,8.73,2.02
144651,-6.48,-6.11,26.92,1.24,8.73,2.05
144687,-5.10,-4.17,23.64,1.22,8.73,2.16
144721,-2.88,-7.22,20.37,1.15,8.73,2.23
144756,-0.16,-3.62,18.19,1.06,8.73,2.07
144791,5.74,-1.58,21.43,1.04,8.73,1.90
144826,8.73,-1.24,20.73,1.22,8.73,1.75
144861,11.19,-0.92,22.37,1.41,8.73,1.73
144896,12.02,-5.21,25.13,1.35,8.73,1.88
144931,12.32,-8.41,28.25,1.26,8.73,1.93
144966,12.59,-7.64,32.86,1.02,8.73,1.87
145001,10.11,-8.26,35.45,0.89,8.73,1.70
145036,8.67,-5.82,38.10,0.88,8.73,1.47
145071,3.98,-5.97,39.49,1.06,8.73,1.41
145106,0.89,-7.16,38.98,1.22,8.73,1.51
145142,-2.28,-5.22,36.75,1.17,8.73,1.68
145176,-5.23,-7.10,34.67,1.16,8.73,1.79
145211,-5.62,-4.76,30.60,1.11,8.73,1.83
145246,-5.66,-4.01,26.98,1.02,8.73,1.84
145281,-4.85,-3.63,23.61,1.07,8.73,1.82
145317,-3.32,-1.53,20.79,1.01,8.73,1.75
145351,1.06,-0.57,19.78,1.02,8.73,1.57
145386,3.15,0.92,20.13,1.21,8.73,1.41
145421,8.59,3.25,21.55,1.45,8.73,1.33
145457,11.66,-1.74,22.91,1.74,8.73,1.46
145491,12.25,-4.75,24.63,1.71,8.73,1.72
145526,12.84,-6.67,27.41,1.56,8.73,1.92
145561,12.42,-7.58,30.72,1.36,8.73,1.94
145596,11.30,-8.12,33.75,1.17,8.73,1.88
145631,8.04,-7.53,36.87,1.15,8.73,1.77
145666,5.37,-6.68,38.34,1.19,8.73,1.61
145701,1.69,-6.64,37.43,1.32,8.73,1.53
145736,-1.83,-5.57,35.36,1.40,8.73,1.57
145771,-4.36,-6.80,34.03,1.56,8.73,1.69
145806,-6.15,-6.30,30.97,1.54,8.73,1.85
145842,-6.00,-7.78,27.61,1.44,8.73,2.03
145876,-6.35,-5.15,24.98,1.28,8.73,2.10
145911,-4.83,-6.21,21.59,1.21,8.73,2.17
145946,-2.86,-4.89,19.91,1.09,8.73,2.10
145981,1.01,-3.55,19.52,0.99,8.73,2.07
146016,5.83,-5.10,19.64,0.95,8.73,2.07
146052,9.47,-4.44,20.38,0.94,8.73,1.99
146086,11.47,-6.63,23.31,0.90,8.73,1.99
146122,13.01,-4.47,27.36,0.85,8.73,1.96
146156,13.04,-6.90,30.16,0.81,8.73,1.98
146191,11.54,-6.99,33.23,0.85,8.73,1.98
146226,9.60,-6.22,36.57,0.78,8.73,1.94
146261,5.98,-7.14,37.34,0.75,8.73,1.95
146296,2.20,-7.78,38.07,0.72,8.73,1.96
146331,-0.14,-5.75,37.01,0.58,8.73,1.98
146366,-3.39,-7.79,33.83,0.43,8.73,1.97
146401,-5.64,-3.30,34.15,0.18,8.73,1.84
146441,-5.82,-0.00,29.87,0.11,8.73,1.59
146476,-5.85,-0.15,26.45,0.35,8.73,1.39
146511,-6.83,4.04,24.14,0.64,8.73,1.38
146546,-1.88,-0.77,20.61,0.83,8.73,1.39
146581,1.70,-3.62,18.73,0.96,8.73,1.56
146616,4.59,-2.51,19.65,1.02,8.73,1.59
146651,8.55,-3.78,20.00,1.04,8.73,1.66
146686,10.44,-3.00,24.86,1.11,8.73,1.70
146721,14.20,-5.20,28.75,1.19,8.73,1.74
146756,14.28,-5.49,31.78,1.26,8.73,1.82
146791,12.57,-7.58,33.68,1.20,8.73,1.89
146826,9.21,-6.76,35.85,1.10,8.73,1.86
146861,6.49,-7.80,36.98,1.05,8.73,1.74
146896,3.08,-6.57,38.65,1.12,8.73,1.67
146932,0.56,-6.65,36.78,1.25,8.73,1.70
146966,-3.72,-7.83,35.54,1.26,8.73,1.77
147001,-7.53,-7.05,35.46,1.16,8.73,1.91
147036,-6.89,-6.54,30.37,1.05,8.73,2.00
147071,-8.44,-5.64,25.87,0.99,8.73,2.00
147106,-5.98,-3.94,23.09,0.97,8.73,2.06
147141,-2.88,-5.77,20.04,0.93,8.73,2.10
147176,1.65,-5.41,18.94,0.90,8.73,2.09
147211,5.47,-3.64,19.44,0.82,8.73,2.05
147246,8.42,-3.99,19.74,0.88,8.73,1.93
147281,11.52,-1.48,22.24,0.99,8.73,1.85
147317,8.21,-1.80,29.56,1.26,8.73,1.89
147351,14.23,-5.27,28.37,1.21,8.73,1.84
147386,13.52,-9.16,31.32,1.25,8.73,1.98
147421,11.50,-5.32,36.30,1.12,8.73,1.92
147456,8.16,-7.05,37.12,1.01,8.73,1.79
147491,4.69,-6.17,37.12,1.05,8.73,1.63
147526,1.43,-6.12,37.66,1.05,8.73,1.63
147561,-1.67,-7.77,35.74,1.06,8.73,1.79
147596,-4.38,-6.39,33.65,0.97,8.73,1.83
147632,-8.26,-5.77,32.60,0.93,8.73,1.86
147666,-8.14,-2.51,29.42,0.90,8.73,1.85
147701,-6.34,-3.81,24.67,0.97,8.73,1.92
147737,-3.95,-4.24,20.18,1.01,8.73,1.90
147771,2.45,-3.28,19.56,0.97,8.73,1.93
147806,5.20,-5.84,18.88,0.88,8.73,1.99
147841,7.87,-3.65,19.49,0.84,8.73,1.92
147876,9.51,-2.96,20.14,0.89,8.73,1.87
147911,10.88,-2.82,22.89,0.89,8.73,1.88
147946,11.67,-6.17,25.50,0.97,8.73,1.90
147981,13.39,-4.19,31.23,0.95,8.73,1.86
148016,12.50,-5.87,34.82,0.99,8.73,1.91
148051,8.87,-8.07,36.37,0.94,8.73,1.85
148086,5.70,-6.55,37.34,0.97,8.73,1.67
148121,2.46,-5.76,38.79,1.09,8.73,1.59
148156,-0.58,-5.06,38.15,1.32,8.73,1.54
148191,-4.37,-6.80,35.53,1.40,8.73,1.61
148226,-5.95,-7.34,33.10,1.50,8.73,1.79
148262,-7.82,-6.37,29.87,1.38,8.73,1.91
148296,-5.58,-5.10,25.92,1.26,8.73,2.00
148331,-2.83,-4.09,21.79,1.23,8.73,1.99
148366,0.58,-3.09,18.83,1.16,8.73,1.94
148401,3.12,-2.89,18.05,1.12,8.73,1.81
148436,6.61,-0.36,19.35,1.23,8.73,1.67
148476,8.60,1.39,19.58,1.50,8.73,1.58
148511,8.05,1.44,22.42,1.72,8.73,1.82
148546,11.58,-6.44,25.98,1.81,8.73,2.01
148581,12.57,-7.53,29.17,1.64,8.73,2.31
148616,11.92,-9.11,33.30,1.44,8.73,2.45
148651,9.00,-8.95,36.46,1.17,8.73,2.35
148685,6.01,-8.70,37.03,1.04,8.73,2.14
148720,2.97,-6.91,37.92,1.04,8.73,1.95
148755,-0.45,-7.00,37.97,1.07,8.73,1.92
148790,-3.10,-6.53,35.77,1.18,8.73,1.90
148826,-5.64,-7.17,32.82,1.13,8.73,1.96
148860,-5.94,-6.54,28.53,1.04,8.73,1.98
148895,-6.02,-3.39,25.67,0.88,8.73,1.89
148930,-5.78,-4.07,22.53,0.83,8.73,1.85
148965,-1.39,-3.08,20.14,0.86,8.73,1.84
149000,2.05,-4.59,18.83,0.85,8.73,1.92
149035,5.15,-4.89,19.04,0.81,8.73,1.95
149070,7.78,-5.17,20.03,0.76,8.73,1.92
149105,10.22,-5.97,21.80,0.79,8.73,1.86
149141,11.84,-3.74,25.75,0.77,8.73,1.78
149175,13.01,-5.97,29.25,0.73,8.73,1.73
149210,12.31,-6.30,33.69,0.75,8.73,1.61
149245,10.37,-6.09,35.52,0.75,8.73,1.50
149280,7.17,-5.61,37.51,0.90,8.73,1.40
