timestamp,accelX,accelY,accelZ,gyroX,gyroY,gyroZ
6772,-0.72,-2.82,10.30,0.61,1.31,0.04
6807,-0.88,-1.89,10.12,0.72,1.45,-0.14
6842,-1.54,-2.70,10.84,0.80,1.59,-0.22
6877,-1.88,-2.01,11.10,0.86,1.73,-0.18
6912,-2.55,-2.49,11.13,0.88,1.89,-0.13
6947,-2.88,-1.98,10.77,0.85,2.00,-0.04
6982,-4.04,-1.96,10.95,0.84,2.07,0.00
7017,-4.56,-3.34,9.80,0.86,2.07,0.06
7052,-5.20,-2.34,10.14,0.79,2.09,0.28
7088,-5.91,0.26,10.28,0.89,2.15,0.24
7122,-6.39,-0.89,8.66,1.07,2.13,0.09
7157,-6.35,0.68,7.57,1.32,2.03,0.02
7192,-6.08,1.52,6.73,1.53,1.93,-0.04
7227,-7.45,-1.72,6.40,1.63,1.87,-0.04
7262,-8.04,-2.56,6.90,1.67,1.89,0.06
7297,-8.28,0.75,7.04,1.59,1.98,0.17
7332,-8.36,-0.60,5.66,1.51,2.06,0.23
7367,-9.00,-3.22,3.99,1.40,2.01,0.35
7402,-8.94,-0.21,3.31,1.31,1.88,0.50
7437,-7.43,2.44,6.26,1.35,1.78,0.52
7472,-0.43,3.68,-7.57,1.46,1.92,0.57
7507,-13.24,5.51,6.61,1.65,2.12,0.75
7542,-2.19,-1.15,-2.42,1.68,2.08,0.82
7577,-11.18,-1.27,0.96,1.51,2.12,0.76
7612,-3.70,0.54,-1.25,1.29,2.26,0.79
7647,-10.81,-3.61,-1.41,0.94,2.37,0.67
7682,-10.75,1.65,0.42,0.62,2.50,0.55
7717,-8.99,3.36,-1.37,0.71,2.60,0.60
7752,-8.37,3.36,-1.99,0.79,2.67,0.65
7787,-8.80,2.70,-2.27,0.86,2.80,0.71
7822,-9.39,1.89,-2.78,0.86,2.97,0.76
7857,-7.39,2.30,-3.40,0.73,3.17,0.55
7892,-6.65,4.67,-4.02,0.61,3.35,0.12
7927,-3.90,5.52,-4.41,0.59,3.49,-0.31
7962,-3.54,6.07,-3.95,0.69,3.65,-0.71
7997,-1.74,7.28,-4.40,0.87,3.82,-0.99
8032,-1.52,7.54,-3.66,1.07,3.97,-1.11
8067,-1.25,7.57,-3.67,1.33,4.13,-1.12
8102,0.88,6.64,-3.82,1.61,4.26,-1.02
8142,4.19,8.83,-1.58,1.98,4.42,-0.95
8177,7.54,8.91,-0.12,2.49,4.47,-0.99
8212,7.51,11.80,1.97,3.20,4.48,-0.97
8247,7.39,5.86,1.38,3.68,4.66,-0.64
8282,6.90,1.12,3.45,3.84,4.86,-0.10
8317,8.56,-3.64,4.82,3.64,5.09,0.47
8352,9.17,-5.60,6.50,3.17,5.32,0.91
8387,9.10,-8.47,7.74,2.49,5.55,1.19
8422,9.81,-9.71,10.85,1.65,5.86,1.14
8457,9.40,-7.85,14.64,1.06,6.01,0.86
8492,8.47,-5.90,16.30,0.79,5.97,0.57
8527,6.85,-3.90,17.88,0.75,5.84,0.34
8562,4.61,-3.92,17.78,0.80,5.62,0.20
8597,3.06,-2.17,17.56,0.93,5.42,0.09
8632,1.06,-2.49,16.75,1.14,5.35,-0.12
8667,0.02,-1.41,17.23,1.40,5.25,-0.27
8702,-1.81,-3.04,16.96,1.70,5.25,-0.36
8737,-3.10,-3.08,14.88,1.87,5.19,-0.23
8772,-4.13,-1.13,15.74,2.07,5.13,-0.01
8807,-6.11,-2.37,14.61,2.24,5.12,0.16
8843,-7.44,-2.60,13.15,2.51,5.10,0.35
8877,-8.03,-3.03,11.44,2.63,5.06,0.61
8912,-8.56,-2.39,10.74,2.64,5.05,0.90
8947,-9.68,-6.16,8.18,2.50,5.07,1.14
8982,-10.07,-6.23,6.06,2.13,5.13,1.30
9017,-8.52,-2.09,4.59,1.70,5.23,1.21
9052,-8.69,-1.55,2.90,1.14,5.40,0.82
9087,-4.46,2.71,1.82,0.82,5.53,0.28
9122,-1.71,6.94,0.41,0.65,5.53,-0.46
9157,-1.30,8.81,0.92,0.84,5.57,-1.12
9192,-0.20,11.89,0.95,1.20,5.74,-1.61
9227,0.78,11.66,2.00,1.66,5.93,-1.73
9262,3.43,8.98,2.53,2.16,6.08,-1.49
9297,5.22,5.95,2.30,2.51,6.13,-1.04
9333,5.74,0.61,2.29,2.53,6.21,-0.39
9367,7.14,-1.13,4.86,2.48,6.31,0.15
9402,8.26,-1.86,4.88,2.32,6.45,0.67
9437,8.78,-4.33,9.37,2.08,6.74,1.03
9472,11.20,-5.80,12.07,1.80,6.94,1.31
9507,9.48,-7.46,16.18,1.47,7.11,1.43
9542,10.33,-6.29,18.99,1.26,7.20,1.47
9577,7.85,-6.70,21.39,1.11,7.22,1.44
9612,6.58,-6.02,22.95,0.98,7.12,1.33
9647,2.97,-6.63,22.53,1.00,6.95,1.34
9682,1.03,-5.98,22.22,0.86,6.90,1.42
9717,-0.88,-7.17,22.48,0.69,6.92,1.62
9753,-4.09,-6.95,22.82,0.45,7.01,1.83
9787,-5.20,-5.19,20.93,0.36,7.08,1.77
9823,-6.68,-2.08,18.16,0.44,7.05,1.60
9857,-7.06,-1.69,16.63,0.68,7.02,1.44
9892,-8.23,-4.76,14.23,0.82,7.06,1.45
9927,-8.75,-3.90,12.47,0.76,7.16,1.52
9962,-7.85,-3.98,10.28,0.73,7.23,1.51
9997,-6.67,-1.81,8.51,0.66,7.31,1.42
10032,-3.65,0.25,7.05,0.65,7.36,1.15
10067,-0.73,2.59,6.63,0.72,7.43,0.84
10102,1.16,3.97,6.02,0.92,7.47,0.54
10137,3.39,5.24,5.70,1.29,7.45,0.34
10176,5.88,5.03,6.52,1.70,7.49,0.37
10211,8.49,1.97,8.89,2.01,7.48,0.59
10246,10.51,-1.13,11.07,2.12,7.45,0.93
10281,11.20,-2.86,13.41,2.08,7.46,1.28
10317,11.38,-4.50,15.68,2.00,7.48,1.60
10351,11.24,-6.48,19.11,1.87,7.53,1.87
10386,9.50,-7.65,21.94,1.73,7.54,2.08
10421,7.24,-7.83,23.76,1.54,7.59,2.21
10456,5.35,-9.33,25.32,1.28,7.64,2.27
10491,2.70,-8.13,26.96,1.09,7.76,2.19
10526,0.11,-7.07,27.10,1.03,7.86,2.02
10561,-2.02,-7.35,25.98,1.21,8.00,1.86
10596,-4.92,-4.31,24.27,1.50,7.99,1.72
10631,-5.76,-6.12,22.14,1.90,7.92,1.74
10666,-6.81,-7.48,17.93,2.09,7.76,1.96
10701,-7.53,-7.76,15.13,2.05,7.60,2.26
10736,-7.17,-9.88,13.17,1.89,7.57,2.52
10771,-6.49,-9.44,10.52,1.48,7.63,2.58
10806,-5.67,-5.00,9.45,1.13,7.75,2.50
10841,-2.61,-6.45,8.46,0.94,7.85,2.37
10876,0.69,-4.72,7.43,0.76,7.90,2.11
10911,3.59,-2.28,7.90,0.71,7.93,1.90
10946,6.20,-1.20,8.58,0.73,7.95,1.72
10981,9.12,0.84,11.39,0.94,7.97,1.57
11016,10.40,-0.89,13.21,1.17,8.02,1.50
11051,11.21,-0.74,15.82,1.39,8.05,1.53
11086,12.32,-4.31,18.43,1.43,8.05,1.65
11121,11.63,-6.14,20.75,1.17,8.02,1.64
11156,10.20,-6.55,22.69,0.93,8.08,1.49
11191,8.26,-4.82,25.02,0.82,8.18,1.34
11226,5.84,-4.82,26.82,0.85,8.23,1.34
11261,3.34,-4.96,29.36,0.93,8.31,1.37
11296,0.79,-4.93,28.78,0.97,8.39,1.39
11331,-2.03,-4.00,27.07,1.04,8.43,1.36
11366,-4.85,-4.08,26.70,1.23,8.42,1.32
11401,-4.99,-3.97,24.38,1.38,8.47,1.39
11436,-7.00,-6.27,22.31,1.35,8.53,1.52
11471,-8.19,-5.13,19.58,1.15,8.62,1.56
11506,-5.95,-1.98,16.39,0.90,8.68,1.38
11541,-2.68,0.79,13.51,0.76,8.69,1.02
11576,0.40,5.53,12.35,0.84,8.63,0.58
11611,1.47,5.77,10.97,1.10,8.59,0.33
11646,3.27,4.95,11.37,1.38,8.63,0.30
11681,5.14,1.74,11.83,1.60,8.66,0.58
11716,7.82,-0.30,12.84,1.65,8.66,0.93
11751,10.07,-3.88,14.85,1.58,8.66,1.22
11786,11.37,-6.42,17.77,1.39,8.68,1.39
11822,11.89,-6.29,20.42,1.15,8.65,1.40
11856,12.42,-7.09,23.05,1.04,8.69,1.34
11891,11.95,-7.09,26.95,0.93,8.73,1.20
11926,7.93,-5.73,28.27,0.94,8.73,1.01
11961,6.58,-4.32,30.64,1.05,8.73,0.84
11996,2.78,-3.22,32.05,1.28,8.73,0.78
12031,0.06,-5.35,32.05,1.53,8.73,0.91
12066,-2.72,-5.87,29.81,1.59,8.73,1.14
12101,-5.21,-7.19,27.83,1.50,8.73,1.41
12136,-6.71,-6.77,24.91,1.34,8.73,1.57
12171,-7.58,-4.42,21.75,1.10,8.73,1.60
12211,-6.18,-2.10,18.15,0.96,8.73,1.54
12246,-2.04,-1.63,14.20,0.93,8.73,1.46
12281,0.97,-0.24,11.83,0.98,8.73,1.43
12317,1.94,0.49,11.16,1.06,8.67,1.32
12351,3.18,2.19,12.19,1.22,8.68,1.19
12386,5.67,3.83,12.62,1.48,8.70,1.08
12421,8.74,2.69,13.30,1.83,8.71,1.09
12456,11.17,-0.49,15.81,2.03,8.71,1.33
12491,11.88,-2.89,18.90,2.01,8.72,1.64
12526,12.86,-5.09,22.10,1.92,8.73,1.91
12561,11.52,-7.48,24.75,1.76,8.73,2.13
12596,10.42,-8.09,27.85,1.52,8.73,2.21
12631,7.20,-8.17,30.81,1.35,8.73,2.19
12666,4.07,-7.38,31.40,1.21,8.73,2.10
12701,1.21,-6.71,33.70,1.15,8.73,1.93
12736,-1.08,-5.77,31.77,1.33,8.73,1.75
12771,-3.89,-5.09,30.04,1.54,8.73,1.69
12806,-5.36,-5.94,26.81,1.86,8.73,1.75
12842,-5.87,-7.27,22.80,1.96,8.73,1.99
12876,-7.11,-8.09,19.68,1.86,8.69,2.25
12911,-5.95,-9.40,16.10,1.71,8.62,2.50
12946,-4.78,-8.94,13.41,1.46,8.59,2.66
12981,-2.58,-7.58,11.35,1.19,8.62,2.66
13016,0.54,-7.26,11.54,0.92,8.70,2.52
13051,3.44,-2.87,11.34,0.85,8.73,2.27
13086,6.07,-1.99,13.30,0.92,8.73,2.04
13121,8.43,-2.10,15.35,1.05,8.73,1.93
13156,11.51,-1.45,17.86,1.19,8.73,1.94
13191,12.37,-3.00,21.26,1.36,8.73,2.04
13226,11.73,-4.24,24.30,1.44,8.73,2.22
13261,10.85,-6.61,26.48,1.42,8.71,2.46
13296,8.63,-7.38,28.54,1.22,8.73,2.55
13332,5.90,-8.14,29.50,0.98,8.73,2.61
13366,3.47,-8.69,30.88,0.73,8.73,2.59
13401,0.67,-6.96,31.97,0.53,8.73,2.40
13436,-1.31,-5.65,29.77,0.43,8.73,2.26
13471,-4.32,-3.74,28.84,0.45,8.73,2.03
13506,-5.22,-3.36,25.36,0.58,8.73,1.88
13541,-7.77,-2.98,22.70,0.79,8.73,1.84
13576,-8.64,-4.01,19.67,0.95,8.73,1.91
13611,-7.83,-5.02,16.88,1.06,8.73,2.08
13646,-5.39,-6.00,14.37,1.01,8.73,2.22
13681,-2.98,-4.49,11.95,0.86,8.73,2.12
13716,-1.48,-2.83,11.50,0.71,8.73,1.93
13751,4.59,-0.63,13.34,0.78,8.73,1.62
13786,7.98,-0.03,12.05,0.97,8.73,1.45
13821,9.76,-2.38,15.17,1.01,8.73,1.48
13856,11.96,-3.68,18.04,1.03,8.73,1.55
13891,11.78,-4.26,20.88,0.97,8.73,1.60
13926,11.72,-5.07,24.45,0.93,8.73,1.62
13961,10.89,-5.28,27.66,0.91,8.73,1.64
13996,8.64,-6.11,29.41,0.89,8.73,1.62
14031,5.25,-5.45,29.12,0.86,8.70,1.54
14066,2.88,-6.26,30.52,0.84,8.64,1.55
14101,0.23,-4.80,30.78,0.85,8.66,1.51
14136,-2.06,-4.58,28.56,0.83,8.72,1.53
14171,-4.36,-3.90,27.33,0.75,8.73,1.57
14206,-6.14,-3.01,24.95,0.72,8.73,1.56
14246,-6.70,-3.51,21.40,0.62,8.73,1.51
14281,-7.80,-1.53,19.49,0.64,8.73,1.46
14316,-7.20,-1.59,16.85,0.69,8.73,1.50
14351,-5.06,-1.37,13.97,0.79,8.73,1.54
14386,-2.01,-2.40,12.50,0.79,8.73,1.54
14421,0.81,-2.49,11.25,0.77,8.73,1.57
14456,4.48,-2.31,12.39,0.76,8.73,1.55
14491,7.63,-3.51,11.66,0.73,8.73,1.59
14526,9.13,-3.73,14.49,0.64,8.73,1.61
14561,12.01,-5.22,16.84,0.55,8.73,1.59
14596,12.41,-4.66,20.37,0.47,8.73,1.49
14631,12.32,-4.93,23.21,0.44,8.73,1.36
14666,10.91,-4.50,25.86,0.52,8.73,1.27
14701,7.94,-3.91,27.89,0.64,8.71,1.26
14736,6.40,-4.08,29.20,0.74,8.61,1.32
14771,2.94,-4.66,28.64,0.82,8.57,1.34
14806,0.26,-3.23,30.64,0.90,8.61,1.21
14841,-1.86,-4.37,27.90,1.09,8.64,1.12
14876,-3.85,-3.58,27.41,1.27,8.66,1.16
14911,-5.81,-2.92,26.41,1.41,8.70,1.22
14946,-6.92,-6.52,22.45,1.34,8.68,1.30
14981,-8.02,-2.89,19.65,1.08,8.69,1.21
15016,-6.52,-0.24,16.97,0.82,8.73,0.92
15051,-4.91,4.25,14.37,0.68,8.73,0.41
15086,-0.06,10.82,14.62,0.85,8.73,-0.26
15121,2.79,11.74,13.15,1.32,8.73,-0.62
15156,5.10,10.18,13.89,1.94,8.73,-0.48
15191,7.58,4.03,13.35,2.34,8.73,0.02
15226,9.15,-1.67,15.06,2.37,8.73,0.76
15261,10.50,-5.67,18.22,2.03,8.73,1.34
15296,11.41,-7.10,22.32,1.72,8.73,1.57
15331,12.57,-7.85,25.12,1.49,8.73,1.67
15367,10.17,-9.30,27.06,1.28,8.73,1.64
15401,8.53,-8.28,28.87,1.07,8.73,1.45
15436,6.08,-7.80,30.32,0.99,8.73,1.27
15471,3.31,-7.02,30.50,1.06,8.73,1.19
15506,0.33,-6.98,30.10,1.20,8.73,1.23
15541,-2.20,-6.77,28.12,1.16,8.73,1.39
15576,-4.36,-6.00,26.15,1.05,8.73,1.51
15611,-8.49,-5.76,25.08,0.93,8.73,1.57
15646,-6.98,-3.81,21.50,0.86,8.73,1.53
15681,-7.96,-4.16,18.97,0.81,8.73,1.46
15716,-7.67,-1.83,16.96,0.78,8.73,1.36
15751,-5.21,-0.73,15.00,0.84,8.73,1.22
15786,-0.45,-0.17,13.41,0.94,8.73,1.07
15820,3.69,2.84,12.39,1.09,8.73,0.81
15855,5.84,5.19,11.85,1.45,8.73,0.62
15890,7.40,2.18,12.10,1.80,8.73,0.72
15925,8.73,-0.99,14.65,1.98,8.73,1.10
15960,10.91,-6.44,17.71,1.80,8.73,1.51
15995,12.95,-6.41,21.05,1.62,8.73,1.77
16030,13.02,-7.78,24.35,1.58,8.73,1.97
16065,11.09,-7.60,27.03,1.44,8.73,2.15
16100,7.89,-9.25,29.14,1.29,8.73,2.35
16135,4.85,-9.65,30.57,1.04,8.73,2.35
16170,2.02,-10.15,32.07,0.77,8.73,2.40
16204,-1.49,-9.26,32.93,0.57,8.73,2.28
16239,-3.45,-8.45,30.59,0.40,8.73,2.20
16279,-6.13,-6.22,27.41,0.13,8.73,2.03
16315,-8.61,-3.11,26.49,-0.08,8.73,1.74
16349,-8.88,-0.50,24.78,-0.29,8.73,1.33
16384,-4.35,2.77,20.27,-0.15,8.73,0.96
16419,-3.66,4.59,16.66,0.13,8.73,0.57
16454,0.65,5.06,14.51,0.57,8.73,0.36
16489,2.62,5.14,14.41,0.96,8.73,0.29
16524,6.17,4.46,15.94,1.40,8.73,0.37
16559,7.85,2.75,16.12,1.84,8.73,0.64
16594,11.10,1.53,19.82,2.13,8.73,1.03
16630,13.27,-4.36,23.39,2.23,8.73,1.46
16664,14.02,-7.41,27.71,2.21,8.73,1.79
16699,12.11,-9.14,30.39,2.08,8.73,2.13
16734,9.21,-9.95,32.39,1.87,8.73,2.26
16769,5.27,-10.61,33.87,1.63,8.73,2.28
16804,2.87,-9.09,33.99,1.45,8.73,2.25
16839,0.43,-9.92,32.93,1.46,8.73,2.12
16874,-3.05,-9.13,31.46,1.53,8.73,2.10
16909,-5.45,-9.21,28.10,1.63,8.73,2.15
16944,-4.37,-9.48,22.50,1.52,8.73,2.32
16979,-5.00,-7.89,19.51,1.43,8.73,2.47
17014,-3.97,-9.15,16.54,1.28,8.73,2.61
17049,-3.52,-8.67,13.28,1.06,8.72,2.70
17084,-2.22,-9.05,11.63,0.82,8.69,2.75
17119,1.35,-7.38,11.88,0.57,8.71,2.52
17154,3.49,-4.34,11.29,0.43,8.73,2.17
17189,5.19,-2.39,12.43,0.45,8.73,1.90
17224,8.47,0.82,16.06,0.67,8.73,1.69
17259,11.58,-2.85,18.17,0.89,8.73,1.59
17294,12.58,-2.69,20.45,0.93,8.73,1.64
17329,12.88,-3.30,23.40,0.98,8.73,1.71
17364,11.70,-6.44,25.76,0.95,8.73,1.76
17399,9.74,-6.28,28.55,0.85,8.73,1.68
17434,7.65,-5.47,31.79,0.87,8.73,1.65
17469,4.40,-6.22,32.57,0.88,8.73,1.70
17504,0.62,-6.32,33.55,0.78,8.73,1.77
17539,-1.92,-6.37,31.48,0.65,8.73,1.81
17574,-4.70,-4.92,29.49,0.60,8.73,1.76
17609,-6.15,-3.88,27.25,0.62,8.73,1.70
17644,-7.53,-3.11,24.82,0.71,8.73,1.65
17679,-6.85,-2.46,21.49,0.79,8.73,1.62
17714,-5.58,-2.20,18.24,0.84,8.73,1.63
17749,-5.02,-2.00,15.51,0.86,8.73,1.63
17784,-2.04,-1.73,13.38,0.88,8.73,1.61
17820,0.54,-1.37,13.80,0.90,8.73,1.58
17854,4.71,-2.22,15.06,0.96,8.73,1.54
17889,8.60,-1.83,15.15,1.03,8.73,1.54
17924,10.40,-2.42,17.93,1.09,8.73,1.60
17959,11.71,-5.00,21.05,1.08,8.73,1.66
17994,12.36,-6.53,24.58,0.95,8.73,1.68
18029,11.96,-6.14,27.41,0.96,8.73,1.68
18064,10.51,-6.40,31.20,0.93,8.73,1.68
18099,8.27,-6.31,33.89,0.95,8.73,1.69
18134,4.57,-6.72,33.80,0.99,8.73,1.74
18169,0.85,-6.85,33.72,0.96,8.73,1.82
18204,-1.77,-6.79,32.16,0.85,8.73,1.89
18239,-4.64,-5.08,30.92,0.78,8.73,1.88
18274,-5.86,-3.71,28.04,0.83,8.73,1.84
18315,-6.87,-3.79,25.76,0.90,8.73,1.83
18349,-7.17,-3.06,22.82,0.93,8.73,1.85
18385,-5.57,-3.91,19.10,0.95,8.73,1.91
18419,-1.40,-2.43,16.85,0.95,8.73,1.88
18454,1.88,-1.71,15.06,0.91,8.73,1.77
18489,3.80,-0.32,15.82,0.98,8.73,1.55
18524,5.66,-1.34,16.54,1.09,8.73,1.50
18559,7.98,-2.88,19.07,1.15,8.73,1.60
18594,10.98,-4.87,22.12,1.10,8.73,1.70
18629,12.85,-6.28,25.57,0.97,8.73,1.74
18665,13.89,-5.50,29.08,0.90,8.73,1.74
18699,11.21,-7.19,31.64,0.87,8.73,1.65
18734,8.72,-5.29,34.12,0.87,8.73,1.56
18769,5.11,-5.94,33.66,0.93,8.73,1.59
18804,2.18,-5.99,33.92,0.95,8.73,1.62
18839,-0.79,-6.28,33.50,0.94,8.73,1.69
18874,-4.26,-5.04,33.30,0.96,8.73,1.72
18910,-5.92,-5.57,30.30,0.95,8.73,1.78
18944,-6.28,-4.89,27.65,0.90,8.73,1.83
18979,-7.20,-4.06,23.97,0.89,8.73,1.83
19014,-4.59,-3.35,19.95,0.90,8.73,1.88
19049,-3.42,-3.75,16.83,0.89,8.73,1.85
19084,0.08,-3.34,15.49,0.84,8.73,1.90
19119,2.30,-4.99,15.69,0.78,8.73,1.95
19154,4.68,-4.26,15.93,0.72,8.73,1.95
19189,7.67,-4.45,17.13,0.65,8.73,1.95
19224,10.93,-4.29,20.60,0.65,8.73,1.86
19259,12.73,-4.58,23.95,0.68,8.73,1.75
19294,13.75,-4.93,26.65,0.71,8.73,1.67
19330,12.09,-5.92,28.92,0.77,8.73,1.62
19364,9.17,-5.69,30.01,0.78,8.73,1.54
19399,7.37,-4.68,32.36,0.82,8.73,1.49
19434,3.89,-5.29,33.45,0.86,8.73,1.45
19469,0.87,-4.92,33.49,0.90,8.73,1.47
19504,-2.19,-4.61,32.59,0.89,8.73,1.54
19539,-4.71,-5.38,31.00,0.85,8.73,1.59
19574,-5.26,-3.73,28.11,0.73,8.73,1.58
19609,-5.97,-2.09,24.88,0.65,8.73,1.48
19644,-6.44,-0.76,22.00,0.64,8.73,1.36
19679,-7.31,0.22,19.29,0.76,8.73,1.35
19714,-4.88,-0.07,17.10,0.91,8.73,1.37
19749,-0.60,0.22,16.11,1.03,8.73,1.44
19784,3.78,-1.08,15.52,1.10,8.73,1.49
19820,7.71,-0.53,17.13,1.24,8.73,1.52
19854,10.62,-2.26,18.37,1.37,8.73,1.61
19889,12.30,-3.06,20.50,1.46,8.73,1.70
19924,13.15,-3.59,22.91,1.52,8.73,1.87
19959,11.94,-5.05,26.07,1.53,8.73,2.04
19994,11.18,-6.51,28.73,1.46,8.73,2.22
20029,8.27,-7.52,31.16,1.32,8.73,2.30
20064,5.49,-8.17,32.77,1.13,8.73,2.37
20099,2.64,-7.64,34.38,0.99,8.73,2.27
20134,-0.39,-7.72,33.85,1.03,8.73,2.12
20169,-2.45,-5.62,31.63,1.14,8.73,1.99
20204,-5.57,-6.26,29.51,1.36,8.73,1.94
20239,-6.21,-6.43,25.26,1.53,8.73,2.09
20274,-6.20,-8.28,21.59,1.48,8.73,2.27
20309,-4.43,-8.29,19.02,1.37,8.73,2.48
20349,-2.28,-8.56,15.03,1.09,8.73,2.60
20384,0.11,-7.87,13.42,0.84,8.73,2.59
20419,1.28,-6.89,12.94,0.59,8.73,2.50
20454,4.30,-5.33,13.56,0.45,8.73,2.29
20489,7.24,-4.63,14.41,0.41,8.73,2.09
20524,9.37,-4.13,18.15,0.41,8.73,1.92
20559,11.76,-3.51,21.13,0.47,8.73,1.81
20594,13.08,-4.20,24.78,0.54,8.73,1.73
20629,12.25,-4.08,28.59,0.59,8.73,1.68
20664,10.18,-5.48,30.65,0.67,8.73,1.71
20699,8.06,-5.08,32.86,0.77,8.73,1.77
20734,5.56,-5.35,32.91,0.71,8.73,1.85
20769,2.71,-5.88,34.51,0.58,8.73,1.95
20804,-1.44,-5.04,35.44,0.52,8.73,1.90
20839,-4.53,-4.58,32.98,0.52,8.73,1.78
20874,-5.54,-2.10,30.44,0.55,8.73,1.65
20909,-5.82,-1.87,25.40,0.64,8.73,1.54
20944,-5.09,-1.29,21.19,0.66,8.73,1.46
20979,-4.53,-0.34,18.18,0.79,8.73,1.50
21014,-3.60,-1.99,15.70,1.00,8.73,1.72
21049,0.21,-4.14,14.43,1.01,8.73,1.87
21084,1.71,-4.15,13.46,0.94,8.73,1.98
21119,5.16,-2.55,14.62,0.94,8.73,1.93
21154,9.17,-0.62,16.48,1.08,8.73,1.81
21189,11.34,-2.22,18.27,1.29,8.73,1.80
21224,12.18,-3.43,21.43,1.35,8.73,1.91
21259,12.48,-4.78,24.24,1.43,8.73,2.09
21294,11.60,-6.90,27.40,1.33,8.73,2.27
21330,10.05,-8.56,30.12,1.13,8.73,2.32
21365,7.92,-7.61,32.50,0.97,8.73,2.35
21399,4.38,-7.83,33.57,0.85,8.73,2.24
21434,0.94,-7.43,34.54,0.74,8.73,2.13
21469,-2.32,-5.71,33.83,0.74,8.73,1.99
21504,-4.42,-5.42,31.27,0.85,8.73,1.86
21539,-5.06,-5.32,27.59,0.93,8.73,1.81
21574,-6.55,-5.25,24.03,0.84,8.73,1.76
21609,-6.86,-3.21,20.80,0.73,8.73,1.64
21644,-5.82,-1.09,18.75,0.64,8.73,1.41
21679,-3.15,2.24,17.10,0.68,8.73,1.09
21714,-0.93,3.47,15.29,0.88,8.73,0.85
21749,2.68,2.92,15.24,1.14,8.73,0.81
21784,6.37,2.42,16.20,1.37,8.73,0.95
21819,8.95,-2.47,17.79,1.54,8.73,1.21
21854,11.77,-4.02,20.71,1.49,8.73,1.43
21889,12.82,-5.12,24.14,1.41,8.73,1.56
21924,12.36,-5.63,27.51,1.33,8.73,1.63
21959,11.11,-7.02,30.32,1.24,8.73,1.64
21994,9.06,-6.32,31.89,1.18,8.73,1.62
22029,5.58,-5.92,32.42,1.16,8.73,1.55
22064,2.63,-6.09,33.65,1.19,8.73,1.55
22099,-0.62,-5.17,32.81,1.30,8.73,1.55
22134,-2.05,-5.78,29.70,1.46,8.73,1.60
22169,-5.06,-6.29,28.30,1.52,8.73,1.72
22204,-5.00,-6.47,24.75,1.61,8.73,1.87
22239,-6.40,-6.86,22.54,1.62,8.73,2.07
22274,-5.83,-7.48,19.65,1.56,8.73,2.27
22309,-4.91,-7.01,16.45,1.42,8.73,2.45
22344,-3.57,-6.78,14.29,1.17,8.73,2.38
22384,1.75,-3.83,14.82,0.99,8.73,2.08
22419,5.57,-0.85,15.41,1.06,8.73,1.79
22454,7.13,-0.00,15.40,1.20,8.73,1.64
22489,9.45,-1.62,17.20,1.32,8.73,1.67
22524,11.67,-3.42,20.75,1.35,8.73,1.76
22559,12.70,-6.30,23.11,1.27,8.73,1.84
22594,12.52,-6.36,26.76,1.14,8.73,1.87
22628,10.84,-6.63,29.40,1.06,8.73,1.87
22663,8.87,-6.46,31.44,0.97,8.73,1.75
22698,5.37,-5.74,32.02,0.93,8.73,1.63
22733,2.89,-5.18,32.94,0.95,8.73,1.62
22768,-0.50,-5.48,33.52,0.99,8.73,1.63
22803,-2.89,-5.43,30.87,0.98,8.73,1.69
22839,-5.48,-5.17,29.17,0.90,8.73,1.70
22873,-6.96,-4.07,26.55,0.84,8.73,1.69
22909,-7.38,-2.94,23.65,0.84,8.73,1.66
22943,-5.84,-2.22,20.59,0.85,8.73,1.64
22978,-5.35,-1.13,17.96,0.87,8.73,1.60
23013,-2.18,-1.80,16.18,0.92,8.73,1.59
23048,1.49,-2.15,15.28,0.93,8.73,1.63
23083,5.42,-2.14,15.46,0.99,8.73,1.65
23118,8.83,-2.31,16.21,1.02,8.73,1.69
23153,11.26,-3.39,18.65,1.08,8.73,1.74
23188,12.81,-3.94,21.34,1.15,8.73,1.79
23223,12.87,-4.41,24.09,1.20,8.73,1.86
23258,12.42,-3.72,26.23,1.25,8.73,1.99
23293,10.95,-6.50,28.54,1.26,8.73,2.20
23329,8.33,-7.42,30.82,1.17,8.73,2.34
23364,5.03,-8.11,32.06,1.00,8.73,2.38
23398,2.03,-7.36,33.12,0.87,8.73,2.31
23433,-1.25,-7.15,34.36,0.87,8.73,2.16
23468,-3.27,-5.77,30.88,1.01,8.73,2.01
23503,-6.12,-4.08,28.65,1.25,8.73,1.95
23538,-6.34,-6.14,24.61,1.47,8.73,2.07
23573,-6.44,-7.60,21.22,1.50,8.73,2.26
23608,-6.44,-8.74,18.77,1.35,8.73,2.42
23643,-4.88,-8.02,16.18,1.10,8.73,2.47
23678,-2.76,-7.31,14.57,0.85,8.73,2.40
23713,0.22,-5.54,13.83,0.63,8.73,2.31
23748,4.11,-4.57,14.48,0.50,8.73,2.16
23783,7.85,-4.58,15.38,0.44,8.73,1.98
23819,10.54,-4.97,17.64,0.39,8.73,1.81
23853,12.50,-4.40,21.22,0.40,8.73,1.67
23888,13.25,-3.95,23.84,0.43,8.73,1.54
23923,12.66,-4.38,27.16,0.50,8.73,1.42
23958,11.26,-4.87,30.09,0.58,8.73,1.30
23993,8.03,-3.41,33.02,0.69,8.73,1.13
24028,5.03,-3.13,33.84,0.84,8.73,0.97
24063,2.43,-2.99,35.05,1.04,8.73,0.99
24098,-0.51,-4.39,35.35,1.21,8.73,1.08
24133,-3.94,-5.82,33.38,1.31,8.73,1.26
24168,-5.03,-4.94,29.83,1.27,8.73,1.43
24203,-6.47,-3.23,26.14,1.18,8.73,1.48
24238,-6.03,-1.97,21.58,1.03,8.73,1.40
24273,-3.28,0.48,18.65,0.98,8.73,1.27
24308,-1.19,2.87,16.42,1.02,8.73,1.08
24343,1.26,3.21,15.50,1.14,8.73,0.96
24378,3.02,1.96,15.20,1.33,8.73,0.99
24418,5.67,0.70,15.44,1.53,8.73,1.17
24453,8.69,-1.92,17.13,1.61,8.73,1.39
24488,10.52,-3.41,19.20,1.56,8.73,1.59
24523,11.53,-5.34,21.54,1.44,8.73,1.73
24558,12.62,-7.78,25.44,1.19,8.73,1.75
24593,11.11,-8.58,29.42,0.99,8.73,1.62
24628,8.28,-6.03,32.30,0.90,8.73,1.38
24663,6.76,-4.89,33.79,0.95,8.73,1.16
24698,3.75,-6.11,33.82,1.19,8.73,1.15
24733,0.05,-5.46,34.20,1.38,8.73,1.34
24768,-3.11,-4.04,32.62,1.45,8.73,1.51
24803,-5.04,-6.15,30.38,1.49,8.73,1.69
24839,-6.53,-5.57,27.74,1.43,8.73,1.87
24873,-5.62,-6.02,23.51,1.35,8.73,2.00
24908,-4.58,-5.75,19.64,1.20,8.73,2.08
24943,-3.90,-4.58,17.10,1.06,8.73,2.12
24978,-2.39,-4.07,15.03,0.94,8.73,2.10
25013,0.19,-4.46,14.46,0.82,8.73,2.04
25048,3.45,-3.78,15.03,0.77,8.73,1.95
25083,7.40,-3.61,15.74,0.68,8.73,1.91
25118,10.61,-5.59,18.58,0.59,8.73,1.87
25153,11.98,-5.99,21.97,0.43,8.73,1.77
25188,12.68,-5.49,24.84,0.29,8.73,1.58
25223,12.20,-3.78,28.07,0.36,8.73,1.40
25257,11.45,-4.21,31.14,0.49,8.73,1.28
25292,8.26,-3.06,34.85,0.67,8.73,1.16
25328,5.29,-4.11,35.79,0.85,8.73,1.22
25362,2.23,-3.53,36.05,0.92,8.73,1.32
25397,-1.99,-4.76,34.27,0.97,8.73,1.43
25432,-4.54,-4.05,32.58,1.02,8.73,1.51
25467,-4.81,-2.50,28.94,1.09,8.73,1.56
25502,-6.17,-3.46,25.71,1.21,8.73,1.66
25537,-7.74,-3.45,23.06,1.30,8.73,1.83
25572,-5.87,-3.95,19.59,1.36,8.73,2.05
25606,-4.31,-4.57,16.82,1.27,8.73,2.16
25641,0.32,-4.49,16.01,1.14,8.73,2.15
25676,3.18,-3.13,15.79,1.04,8.73,2.12
25711,6.70,-3.73,16.62,0.99,8.73,2.05
25746,10.14,-4.87,18.22,0.95,8.73,2.02
25781,12.22,-4.54,21.03,0.84,8.73,2.00
25816,12.00,-5.77,23.29,0.80,8.73,1.96
25851,12.15,-5.15,26.40,0.73,8.73,1.90
25886,11.30,-5.88,28.88,0.71,8.73,1.82
25921,8.95,-5.39,31.47,0.67,8.73,1.70
25956,6.66,-5.21,33.37,0.67,8.73,1.63
25991,3.11,-6.28,33.67,0.73,8.73,1.57
26026,-0.18,-4.54,34.25,0.81,8.73,1.49
26061,-2.30,-3.21,31.73,0.95,8.73,1.42
26096,-5.18,-3.21,30.81,1.05,8.73,1.44
26131,-6.61,-3.00,28.62,1.10,8.73,1.48
26166,-5.26,-3.33,24.38,1.07,8.73,1.48
26201,-4.16,-0.22,21.33,1.01,8.73,1.37
26236,-3.10,1.19,18.78,1.04,8.73,1.21
26271,-0.73,3.79,17.30,1.07,8.73,0.81
26306,1.00,5.32,16.33,1.33,8.73,0.62
26341,4.50,4.54,16.21,1.71,8.73,0.64
26377,8.23,2.23,16.92,1.97,8.73,0.88
26411,10.37,-1.93,18.48,2.07,8.73,1.29
26451,12.27,-4.98,21.60,1.85,8.73,1.69
26486,12.68,-7.70,25.05,1.60,8.73,1.88
26521,11.99,-8.24,28.32,1.42,8.73,1.96
26556,10.22,-7.81,31.04,1.26,8.73,1.99
26591,7.66,-8.69,33.36,1.13,8.73,1.86
26626,4.86,-6.95,34.72,1.08,8.73,1.66
26661,1.90,-6.24,34.87,1.22,8.73,1.50
26696,-1.80,-6.58,34.15,1.34,8.73,1.51
26731,-4.74,-6.91,32.21,1.35,8.73,1.63
26766,-5.56,-6.92,29.37,1.15,8.73,1.74
26801,-6.59,-6.25,26.37,0.84,8.73,1.72
26836,-6.77,-2.74,23.53,0.65,8.73,1.55
26871,-6.39,-0.79,21.02,0.63,8.73,1.42
26906,-2.74,-0.03,18.75,0.76,8.73,1.32
26941,1.33,-0.19,17.48,0.90,8.73,1.35
26976,5.10,-2.52,17.72,0.96,8.73,1.43
27011,8.32,-4.13,17.81,0.95,8.73,1.60
27046,11.27,-4.44,20.14,0.96,8.73,1.66
27081,12.67,-4.18,23.42,0.99,8.73,1.67
27116,13.69,-4.30,26.19,1.14,8.73,1.73
27151,12.10,-5.71,28.78,1.26,8.73,1.86
27186,10.74,-7.16,31.70,1.25,8.73,2.03
27221,7.89,-7.99,34.57,1.19,8.73,2.04
27256,4.95,-7.20,35.97,1.11,8.73,1.93
27291,1.83,-6.72,36.74,1.11,8.73,1.79
27326,-1.35,-7.20,35.98,1.23,8.73,1.70
27361,-4.55,-5.96,34.54,1.26,8.73,1.79
27396,-4.53,-7.01,30.90,1.20,8.73,1.90
27431,-5.65,-6.15,27.02,1.09,8.73,1.94
27466,-3.91,-4.84,23.45,0.99,8.73,1.93
27501,-2.49,-4.34,20.15,0.96,8.73,1.90
27536,-0.76,-2.85,17.55,0.95,8.73,1.81
27571,2.02,-2.12,17.11,0.99,8.73,1.71
27606,5.23,-0.62,17.75,1.10,8.73,1.61
27641,7.13,-0.27,18.34,1.30,8.73,1.55
27676,9.59,-3.63,20.86,1.41,8.73,1.66
27711,11.86,-4.86,23.07,1.38,8.73,1.77
27746,12.39,-6.86,26.70,1.25,8.73,1.86
27781,12.21,-7.99,30.43,1.20,8.73,1.91
27817,10.58,-7.62,33.83,1.08,8.73,1.87
27851,9.14,-7.46,37.06,1.04,8.73,1.77
27886,3.97,-7.55,38.20,1.04,8.73,1.82
27921,0.91,-8.00,38.91,1.12,8.73,1.87
27956,-2.20,-6.23,35.64,1.13,8.73,1.90
27991,-4.52,-6.50,32.92,1.11,8.73,1.93
28026,-5.52,-5.99,29.54,1.03,8.73,1.95
28061,-6.95,-6.04,26.57,0.97,8.73,1.96
28096,-5.68,-3.43,23.47,0.87,8.73,1.92
28131,-4.32,-4.13,19.92,0.85,8.73,1.88
28166,0.72,-2.99,18.73,0.87,8.73,1.83
28201,3.98,-2.78,18.88,0.84,8.73,1.80
28236,6.86,-3.35,20.10,0.89,8.73,1.77
28271,9.25,-3.29,19.95,0.93,8.73,1.77
28306,10.67,-4.18,23.62,1.00,8.73,1.78
28341,12.57,-4.29,27.04,1.03,8.73,1.82
28376,12.66,-6.10,30.77,1.10,8.73,1.89
28411,11.72,-7.20,34.61,1.12,8.73,1.92
28446,9.74,-6.16,37.59,1.03,8.73,1.86
28486,5.68,-6.24,38.36,1.08,8.73,1.75
28521,1.48,-7.04,38.06,1.14,8.73,1.72
28556,-1.40,-4.31,37.17,1.25,8.73,1.69
28591,-4.60,-7.08,33.82,1.39,8.73,1.73
28626,-4.91,-5.99,29.88,1.41,8.73,1.81
28661,-7.10,-6.60,27.18,1.25,8.73,1.92
28696,-6.76,-4.34,24.32,1.18,8.73,1.91
28731,-4.47,-2.49,21.28,1.05,8.73,1.83
28766,-1.18,-3.29,19.64,1.06,8.73,1.83
28801,1.98,-2.21,19.17,1.08,8.73,1.81
28836,5.36,-2.26,19.46,1.14,8.73,1.80
28871,8.43,-2.92,20.25,1.27,8.73,1.81
28906,10.58,-2.76,23.14,1.30,8.73,1.90
28941,12.31,-5.63,26.22,1.37,8.73,2.03
28976,12.95,-6.73,30.97,1.28,8.73,2.11
29011,12.07,-8.65,34.59,1.18,8.73,2.18
29046,9.22,-7.76,36.59,1.05,8.73,2.11
29081,5.77,-7.90,37.14,0.96,8.73,2.01
29116,2.17,-7.58,38.24,0.98,8.73,1.90
29151,-0.57,-6.36,37.41,0.98,8.73,1.89
29186,-3.73,-7.61,34.81,0.94,8.73,1.93
29221,-5.47,-5.16,32.82,0.76,8.73,1.94
29256,-6.21,-5.03,29.28,0.66,8.73,1.90
29291,-6.53,-1.73,26.60,0.63,8.73,1.77
29326,-4.74,-1.10,23.05,0.64,8.73,1.71
29361,-1.71,-2.34,20.10,0.79,8.73,1.70
29396,1.71,-2.80,19.57,0.82,8.73,1.71
29431,5.27,-3.05,19.35,0.85,8.73,1.71
29466,7.81,-3.30,19.45,0.88,8.73,1.75
29501,10.44,-4.24,22.44,0.83,8.73,1.78
29536,12.83,-6.24,26.18,0.82,8.73,1.76
29571,13.22,-5.76,30.65,0.80,8.73,1.67
29606,12.21,-7.34,33.61,0.85,8.73,1.62
29641,10.08,-4.83,35.86,0.89,8.73,1.55
29676,6.97,-6.16,37.31,0.96,8.73,1.56
29711,4.18,-6.92,38.39,1.08,8.73,1.62
29746,0.54,-6.01,40.02,1.20,8.73,1.69
29781,-2.95,-7.04,37.84,1.26,8.73,1.81
29817,-5.74,-5.55,35.86,1.26,8.73,1.91
29851,-5.56,-6.41,31.19,1.35,8.73,2.04
29886,-7.33,-7.87,26.72,1.34,8.73,2.17
29921,-5.89,-5.78,24.08,1.26,8.73,2.26
29956,-0.98,-6.01,21.99,1.08,8.73,2.30
29991,2.10,-6.02,20.22,0.97,8.73,2.20
30026,5.72,-4.44,20.60,0.91,8.73,2.11
30061,8.83,-4.51,21.92,0.88,8.73,2.04
30096,11.42,-5.22,23.98,0.78,8.73,2.02
30131,12.92,-6.86,28.18,0.71,8.73,1.96
30166,13.74,-4.87,31.27,0.67,8.73,1.81
30201,12.79,-6.29,33.94,0.67,8.73,1.75
30236,9.71,-5.28,36.56,0.79,8.73,1.69
30271,6.34,-5.54,38.03,0.84,8.73,1.68
30306,3.62,-5.62,40.52,0.93,8.73,1.70
30342,0.08,-5.14,40.01,1.00,8.73,1.65
30376,-2.64,-4.62,37.52,1.05,8.73,1.66
30411,-5.53,-4.53,35.05,1.14,8.73,1.71
30446,-6.26,-5.03,31.52,1.17,8.73,1.73
30481,-6.19,-2.44,28.75,1.09,8.73,1.74
30521,-4.08,-1.03,24.49,1.12,8.73,1.77
30556,0.00,-3.01,22.05,1.17,8.73,1.78
30591,2.25,-2.81,20.66,1.15,8.73,1.86
30626,6.68,-4.28,20.96,1.17,8.73,1.92
30661,10.58,-1.65,22.97,1.25,8.73,1.96
30696,12.56,-4.15,24.99,1.36,8.73,2.01
30731,12.60,-5.49,27.81,1.44,8.73,2.15
30766,12.37,-6.16,30.70,1.40,8.73,2.27
30801,11.80,-8.42,34.94,1.27,8.73,2.36
30836,9.41,-9.06,37.87,1.07,8.73,2.37
30871,5.54,-9.53,39.54,0.97,8.73,2.25
30906,2.41,-6.79,41.01,1.00,8.73,2.04
30941,-1.47,-6.59,39.49,1.03,8.73,1.97
30976,-3.11,-7.30,36.75,1.10,8.73,2.00
31011,-4.48,-7.12,33.39,1.09,8.73,2.04
31046,-4.82,-4.44,29.82,1.06,8.73,2.05
31081,-3.79,-5.57,26.14,0.97,8.73,2.03
31116,-2.69,-4.49,22.40,0.99,8.73,2.04
31151,0.67,-3.15,20.51,0.93,8.73,1.94
31186,4.03,-2.38,20.72,0.93,8.73,1.84
31221,7.85,-3.57,20.71,1.05,8.73,1.77
31256,10.60,-2.21,21.80,1.17,8.73,1.73
31292,12.43,-3.62,25.40,1.23,8.73,1.81
31327,12.66,-6.51,29.05,1.28,8.73,1.91
31362,13.54,-5.94,32.86,1.25,8.73,1.97
31396,11.71,-7.10,35.55,1.17,8.73,2.09
31431,8.24,-8.47,37.91,1.14,8.73,2.11
31466,5.45,-7.82,40.09,1.11,8.73,2.03
31501,1.49,-6.39,41.19,1.13,8.73,2.00
31536,-1.98,-7.16,39.24,1.21,8.73,1.96
31571,-4.31,-6.40,36.15,1.33,8.73,1.98
31606,-4.97,-6.91,31.57,1.34,8.73,2.06
31641,-5.29,-7.54,27.23,1.25,8.73,2.12
31676,-4.12,-4.40,23.64,1.17,8.73,2.12
31711,-3.41,-5.24,20.71,1.04,8.73,2.18
31746,-1.19,-5.66,19.52,0.99,8.73,2.18
31781,4.15,-4.47,20.07,0.94,8.73,2.13
31817,8.44,-3.47,21.50,0.91,8.73,2.03
31851,10.57,-4.81,22.34,0.96,8.73,1.98
31886,11.68,-5.54,25.72,1.04,8.73,1.91
31921,13.46,-4.20,28.27,0.98,8.73,1.90
31956,12.17,-6.83,31.59,0.97,8.73,1.92
31991,10.82,-7.41,35.39,0.89,8.73,1.83
32026,8.95,-6.28,39.21,0.86,8.73,1.70
32061,4.74,-7.12,39.49,0.94,8.73,1.59
32096,1.20,-5.23,39.87,1.11,8.73,1.58
32131,-2.11,-6.34,36.63,1.16,8.73,1.63
32166,-3.58,-4.93,32.81,1.20,8.73,1.68
32201,-5.69,-4.67,30.16,1.13,8.73,1.75
32236,-6.12,-4.33,26.89,1.12,8.73,1.77
32271,-5.92,-3.55,24.65,1.07,8.73,1.81
32306,-6.06,-3.04,22.59,1.12,8.73,1.86
32342,1.19,-2.16,20.28,1.14,8.73,1.71
32376,5.24,0.28,19.63,1.20,8.73,1.67
32411,7.03,-1.14,20.58,1.36,8.73,1.69
32446,10.39,0.20,21.96,1.60,8.73,1.70
32481,11.04,-3.49,24.46,1.72,8.73,1.83
32516,12.69,-5.44,27.72,1.71,8.73,2.03
32556,12.30,-9.07,31.32,1.46,8.73,2.18
32591,11.03,-8.30,35.59,1.24,8.73,2.15
32626,8.94,-8.79,38.71,1.09,8.73,1.99
32661,4.65,-7.70,38.04,1.07,8.73,1.94
32696,0.99,-7.28,38.80,1.03,8.73,1.90
32731,-1.94,-7.81,35.91,1.01,8.73,1.95
32766,-4.31,-5.47,33.41,0.84,8.73,1.95
32801,-5.83,-5.59,30.60,0.73,8.73,1.91
32836,-6.71,-4.19,27.46,0.59,8.73,1.81
32871,-5.21,-1.63,24.63,0.51,8.73,1.69
32906,-4.27,-2.39,21.05,0.63,8.73,1.64
32941,-0.80,-1.60,20.26,0.70,8.73,1.72
32976,2.43,-4.47,19.41,0.70,8.73,1.84
33011,6.87,-6.00,19.07,0.60,8.73,1.97
33046,9.74,-6.72,20.07,0.43,8.73,1.97
33081,11.79,-6.81,23.55,0.35,8.73,1.88
33116,12.97,-5.73,26.84,0.31,8.73,1.70
33151,13.22,-3.03,30.48,0.50,8.73,1.56
33186,11.67,-3.47,32.95,0.72,8.73,1.58
33221,9.36,-5.93,35.91,0.92,8.73,1.70
33256,5.75,-6.33,35.91,0.98,8.73,1.77
33291,2.28,-6.31,36.70,1.01,8.73,1.73
33326,-0.77,-4.34,37.27,1.06,8.73,1.65
33362,-3.19,-5.26,34.81,1.24,8.73,1.59
33396,-5.42,-4.92,31.87,1.38,8.73,1.62
33431,-8.21,-5.21,29.14,1.44,8.73,1.71
33466,-8.48,-5.57,26.19,1.33,8.73,1.79
33501,-6.24,-4.03,21.66,1.19,8.73,1.75
33536,-0.62,0.13,19.83,1.08,8.73,1.47
33571,3.73,2.22,18.53,1.19,8.73,1.21
33606,6.43,3.69,19.08,1.45,8.73,0.99
33641,8.30,2.81,18.18,1.76,8.73,1.12
33676,10.65,-1.43,22.20,1.91,8.73,1.39
33711,13.21,-5.22,23.65,1.86,8.73,1.71
33746,13.15,-5.26,26.32,1.67,8.73,1.93
33781,12.59,-8.07,29.31,1.47,8.73,2.07
33817,11.19,-8.36,32.77,1.30,8.73,2.09
33851,7.79,-8.41,35.16,1.22,8.73,2.03
33886,5.06,-7.43,36.07,1.19,8.73,1.97
33921,1.98,-7.17,37.13,1.23,8.73,1.89
33957,-1.59,-6.36,35.26,1.32,8.73,1.88
33990,-4.95,-5.42,33.66,1.41,8.73,1.91
34025,-5.49,-6.65,30.26,1.49,8.73,2.01
34060,-6.74,-6.62,26.77,1.58,8.73,2.17
34095,-7.22,-8.84,22.34,1.58,8.73,2.39
34131,-5.83,-8.38,19.32,1.42,8.73,2.59
34165,-2.67,-8.98,17.01,1.19,8.73,2.63
34200,1.37,-6.74,15.90,0.92,8.73,2.46
34235,5.91,-3.50,15.83,0.83,8.73,2.15
34270,8.54,-2.36,17.97,0.92,8.73,1.88
34305,11.44,-1.78,19.04,1.05,8.73,1.79
34340,11.78,-4.52,21.98,1.13,8.73,1.83
34376,11.71,-4.69,24.88,1.06,8.73,1.92
34410,12.04,-4.73,27.84,1.09,8.73,2.05
34445,11.79,-6.82,31.60,1.04,8.73,2.19
34480,7.81,-6.27,34.64,0.98,8.73,2.31
34515,4.62,-7.46,34.56,0.87,8.73,2.49
34550,2.75,-6.72,35.20,0.60,8.73,2.58
34590,-1.52,-6.55,34.22,0.43,8.73,2.41
34625,-3.99,-3.59,34.15,0.52,8.73,2.21
34660,-5.35,-3.28,30.33,0.88,8.73,2.07
34695,-6.20,-4.85,26.33,1.25,8.73,2.14
34730,-6.87,-6.76,21.99,1.49,8.73,2.39
34765,-5.08,-10.22,18.44,1.49,8.73,2.76
34800,-2.78,-11.33,15.28,1.21,8.73,2.95
34835,1.60,-9.93,14.41,0.89,8.73,3.01
34870,4.48,-9.09,14.95,0.60,8.73,2.85
34906,6.18,-7.60,15.14,0.40,8.73,2.60
34940,9.61,-6.84,17.48,0.30,8.73,2.40
34975,11.31,-4.37,21.54,0.36,8.73,2.18
35010,12.77,-4.70,25.22,0.51,8.73,2.06
35045,12.53,-4.32,28.40,0.62,8.73,2.05
35080,11.25,-5.29,31.67,0.75,8.73,2.17
35115,9.17,-6.99,33.72,0.72,8.73,2.24
35150,4.58,-8.19,34.12,0.58,8.73,2.40
35185,1.82,-7.36,35.67,0.33,8.73,2.43
35220,-0.10,-5.51,35.77,0.11,8.73,2.26
35255,-4.30,-4.33,34.28,0.11,8.73,1.99
35290,-5.64,-3.23,30.63,0.07,8.73,1.75
35326,-5.56,-1.33,27.41,0.14,8.73,1.55
35361,-6.83,-0.84,24.04,0.26,8.73,1.36
35395,-6.22,1.47,22.01,0.42,8.73,1.26
35430,-3.89,0.44,18.84,0.65,8.73,1.20
35464,-0.99,-0.35,18.10,0.82,8.73,1.33
35499,2.66,-2.70,17.79,0.92,8.73,1.57
35534,6.06,-3.49,17.25,0.94,8.73,1.72
35569,10.82,-2.99,19.73,1.03,8.73,1.72
35604,12.94,-1.33,23.05,1.28,8.73,1.70
35638,13.23,-1.57,26.08,1.54,8.73,1.82
35673,12.28,-3.91,28.65,1.80,8.73,2.14
35707,10.80,-7.75,31.41,1.81,8.73,2.45
35742,8.71,-10.61,33.99,1.55,8.73,2.50
35777,5.34,-9.11,36.36,1.30,8.73,2.33
35812,2.56,-7.32,37.00,1.22,8.73,2.06
35847,-0.79,-6.63,35.16,1.30,8.73,1.91
35882,-3.23,-5.99,32.59,1.54,8.73,1.86
35917,-4.99,-8.49,28.60,1.64,8.73,1.97
35952,-6.27,-8.22,25.56,1.66,8.73,2.19
35986,-7.63,-8.97,23.69,1.48,8.73,2.35
36021,-7.74,-8.41,21.33,1.24,8.73,2.43
36056,-4.45,-8.06,18.90,1.00,8.73,2.43
36091,0.56,-5.07,18.19,0.81,8.73,2.22
36126,4.24,-4.38,18.18,0.75,8.73,2.09
36161,6.55,-4.65,18.26,0.66,8.73,2.05
36196,10.04,-7.02,19.82,0.59,8.73,1.99
36231,12.70,-5.40,23.43,0.52,8.73,1.87
36266,13.59,-4.61,27.15,0.54,8.73,1.76
36301,12.28,-5.31,30.71,0.64,8.73,1.69
36336,11.26,-6.26,33.37,0.66,8.73,1.58
36371,8.44,-5.70,35.82,0.76,8.73,1.48
36406,5.15,-5.17,36.17,0.87,8.73,1.44
36441,1.84,-5.32,38.15,1.05,8.73,1.37
36476,-1.80,-5.77,36.84,1.15,8.73,1.47
36511,-4.38,-4.86,35.82,1.17,8.73,1.62
36546,-5.84,-3.93,32.32,1.14,8.73,1.70
36581,-6.01,-4.52,27.91,1.08,8.73,1.66
36621,-4.85,-1.66,23.86,0.96,8.73,1.55
36656,-3.54,1.57,22.20,0.93,8.73,1.39
36691,-0.60,1.89,21.02,1.09,8.73,1.25
36726,0.58,3.04,20.04,1.27,8.73,1.21
36760,4.90,0.70,19.55,1.48,8.73,1.32
36795,9.67,-2.94,20.88,1.66,8.73,1.50
36830,13.14,-4.27,24.81,1.56,8.73,1.74
36865,13.89,-8.11,27.61,1.32,8.73,1.90
36901,12.88,-8.12,30.09,1.07,8.73,1.86
36935,10.99,-8.32,32.25,0.88,8.73,1.74
36970,8.86,-6.19,34.23,0.80,8.73,1.57
37005,5.77,-6.71,37.13,0.92,8.73,1.56
37040,2.92,-6.22,37.75,0.93,8.73,1.75
37075,-1.11,-7.93,38.11,0.80,8.73,1.98
37110,-4.38,-7.89,36.54,0.66,8.73,1.99
37145,-6.09,-3.67,33.80,0.62,8.73,1.90
37180,-6.01,-3.32,29.80,0.67,8.73,1.81
37215,-7.69,-3.32,26.17,0.85,8.73,1.78
37250,-4.71,-3.89,24.39,0.84,8.73,1.77
37285,-3.68,-2.62,20.53,0.87,8.73,1.74
37321,0.24,-1.35,19.68,0.88,8.73,1.54
37355,4.60,-0.38,19.97,1.01,8.73,1.45
37390,9.74,-3.72,19.79,1.08,8.73,1.54
37425,13.24,-3.97,23.90,1.00,8.73,1.61
37460,14.20,-6.24,25.35,0.92,8.73,1.62
37495,13.35,-6.59,27.71,0.83,8.73,1.58
37530,11.17,-6.82,30.89,0.85,8.73,1.53
37565,10.80,-5.15,33.68,0.88,8.73,1.53
37600,7.82,-5.32,37.24,1.02,8.73,1.58
37635,3.89,-6.30,38.38,1.05,8.73,1.66
37670,0.30,-7.10,37.43,1.02,8.73,1.81
37706,-2.51,-4.86,35.30,1.01,8.73,1.82
37740,-5.47,-6.52,33.09,0.96,8.73,1.86
37775,-6.64,-4.74,30.85,0.95,8.73,1.90
37810,-7.24,-5.26,28.18,0.91,8.73,1.94
37845,-7.03,-4.27,24.31,0.94,8.73,2.00
37880,-0.94,-2.67,21.85,0.90,8.73,1.99
37915,3.96,-4.06,19.17,0.89,8.73,1.95
37950,5.90,-5.11,17.83,0.80,8.73,2.05
37985,7.33,-7.09,17.96,0.61,8.73,2.14
38020,8.17,-5.79,18.63,0.41,8.73,2.10
38056,11.04,-6.35,21.62,0.36,8.73,1.97
38090,12.63,-3.85,26.27,0.38,8.73,1.78
38125,13.01,-4.11,30.03,0.52,8.73,1.72
38160,11.64,-5.82,33.46,0.70,8.73,1.70
38196,9.36,-5.32,36.08,0.75,8.73,1.72
38230,5.59,-7.00,36.27,0.80,8.73,1.81
38265,2.51,-5.88,37.01,0.77,8.73,1.89
38300,-0.93,-6.73,36.57,0.70,8.73,1.92
38336,-3.58,-5.45,34.74,0.64,8.73,1.90
38370,-5.11,-2.42,31.84,0.68,8.73,1.82
38405,-5.99,-3.36,27.93,0.77,8.73,1.77
38441,-5.62,-2.41,24.49,0.82,8.73,1.74
38475,-4.40,-2.65,21.04,0.92,8.73,1.81
38510,-1.52,-3.26,18.26,0.96,8.73,1.87
38545,1.64,-4.52,17.03,0.92,8.73,1.91
38580,4.64,-3.94,16.88,0.86,8.73,1.90
38615,7.56,-4.32,16.50,0.82,8.73,1.87
38655,7.41,-4.58,17.92,0.79,8.73,1.90
38690,11.99,-4.20,24.91,0.88,8.73,1.84
38725,13.41,-4.48,27.85,0.89,8.73,1.87
38760,12.38,-5.68,31.25,1.03,8.73,1.96
38795,11.04,-7.71,34.16,1.04,8.73,2.05
38830,7.99,-6.89,35.87,0.95,8.73,2.03
38865,4.28,-7.07,36.35,0.89,8.73,1.96
38901,1.31,-6.24,37.25,0.89,8.73,1.93
38935,-2.31,-5.25,36.39,1.02,8.73,1.81
38970,-5.07,-4.49,33.86,1.14,8.73,1.77
39006,-4.52,-5.89,28.40,1.22,8.73,1.83
39040,-6.33,-4.92,25.73,1.22,8.73,1.91
39075,-6.30,-4.88,23.25,1.21,8.73,1.97
39110,-3.80,-4.24,20.45,1.13,8.73,2.02
39145,-0.62,-5.15,18.31,1.10,8.73,2.03
39180,2.74,-3.84,17.69,1.02,8.73,2.03
39215,6.36,-4.02,17.66,1.01,8.73,1.97
39250,8.50,-2.72,18.93,1.09,8.73,1.90
39285,9.95,-3.83,21.79,1.16,8.73,1.91
39321,11.58,-4.26,24.14,1.25,8.73,1.97
39355,12.28,-6.81,28.05,1.21,8.73,2.09
39390,11.74,-9.10,31.85,1.06,8.73,2.07
39425,9.35,-7.66,35.99,0.80,8.73,1.77
39460,6.32,-8.10,36.85,0.80,8.73,1.45
39495,3.05,-5.83,37.99,0.99,8.73,1.40
39530,0.13,-5.68,36.42,1.14,8.73,1.42
39565,-3.21,-7.08,33.00,1.08,8.73,1.56
39600,-5.41,-4.63,30.78,1.00,8.73,1.62
39635,-6.82,-4.41,28.14,1.04,8.73,1.64
39670,-8.49,-3.58,25.56,1.04,8.73,1.59
39705,-5.89,-2.55,23.14,1.02,8.73,1.56
39740,-3.79,-0.33,19.47,1.02,8.73,1.38
39775,0.09,3.36,18.95,1.20,8.73,1.16
39810,3.65,4.67,18.86,1.52,8.73,0.98
39846,5.74,1.65,19.32,1.84,8.73,1.18
39880,9.46,-2.13,21.47,2.18,8.73,1.42
39915,12.89,-2.59,25.58,2.25,8.73,1.76
39950,12.51,-5.36,28.92,2.25,8.73,2.25
39985,12.82,-10.25,32.18,2.09,8.73,2.64
40020,11.32,-10.29,35.35,1.76,8.73,2.90
40055,8.04,-12.64,37.38,1.36,8.73,3.02
40090,4.76,-11.90,39.17,1.03,8.73,2.91
40125,0.97,-9.43,38.71,0.91,8.73,2.51
40160,-2.79,-7.19,37.76,0.97,8.73,2.21
40195,-5.01,-7.21,34.99,1.11,8.73,2.07
40230,-5.23,-8.07,29.92,1.01,8.73,2.09
40265,-8.98,-6.75,26.97,0.89,8.73,2.03
40301,-5.53,-4.85,23.50,0.84,8.73,1.99
40336,-2.42,-5.56,19.88,0.93,8.73,2.03
40370,0.64,-6.76,18.47,0.90,8.73,2.09
40405,3.91,-9.85,18.19,0.77,8.73,2.38
40440,7.58,-7.23,19.02,0.73,8.73,2.30
40475,10.75,-6.51,20.13,0.72,8.73,2.14
40510,12.15,-1.22,23.91,1.11,8.73,1.97
40545,12.88,-3.69,25.07,1.48,8.73,2.06
40580,12.91,-3.85,29.14,1.74,8.73,2.45
40615,12.56,-7.55,32.25,1.81,8.73,3.06
40650,7.94,-14.11,34.14,1.46,8.73,3.38
40690,5.19,-13.91,37.08,0.95,8.73,3.64
40725,1.74,-13.74,37.80,0.41,8.73,3.34
40760,-2.86,-9.28,38.41,0.23,8.73,2.73
40795,-5.14,-5.94,38.79,0.13,8.73,2.41
40830,-5.35,-5.94,33.16,0.15,8.73,2.15
40865,-8.26,-3.14,30.16,0.25,8.73,1.90
40901,-2.42,-2.06,25.80,0.44,8.73,1.68
40935,0.37,-1.05,21.46,0.61,8.73,1.50
40970,2.91,1.32,20.55,0.79,8.73,1.22
41005,5.01,1.95,20.81,1.02,8.73,1.07
41040,7.16,0.78,20.68,1.47,8.73,1.03
41075,10.52,-0.07,22.01,1.74,8.73,1.28
41110,12.16,-3.06,26.52,1.95,8.73,1.61
41145,13.57,-9.52,29.48,1.79,8.73,1.96
41180,12.69,-10.78,32.96,1.54,8.73,2.14
41215,10.43,-10.50,36.16,1.38,8.73,2.23
41250,8.34,-8.88,38.46,1.14,8.73,2.21
41285,3.19,-12.09,36.90,0.97,8.73,2.42
41320,-0.04,-11.18,37.22,0.72,8.73,2.55
41355,-3.17,-9.01,36.70,0.41,8.73,2.49
41390,-6.88,-9.13,35.31,0.20,8.73,2.32
41425,-7.01,-4.19,32.39,0.20,8.73,2.06
41460,-7.74,-2.96,28.64,0.38,8.73,1.84
41495,-4.81,-3.14,24.35,0.46,8.73,1.73
41530,-1.25,-2.86,21.50,0.72,8.73,1.65
41565,3.32,-0.86,20.86,0.86,8.73,1.52
41600,7.10,1.21,20.59,1.08,8.73,1.35
41635,9.64,-1.47,20.33,1.44,8.73,1.30
41670,13.21,0.02,22.95,1.81,8.73,1.36
41705,15.31,-2.11,25.90,2.10,8.73,1.63
41740,12.10,-6.80,26.44,2.21,8.73,2.08
41775,11.84,-10.20,32.98,2.21,8.73,2.52
41810,9.46,-10.96,35.50,1.84,8.73,2.87
41845,7.22,-11.39,38.56,1.54,8.73,3.15
41880,2.55,-13.48,39.37,0.97,8.73,3.12
41915,-0.41,-11.10,39.29,0.71,8.73,2.92
41950,-2.90,-9.89,35.80,0.52,8.73,2.69
41985,-6.34,-7.18,32.69,0.48,8.73,2.47
42020,-3.62,-6.02,26.56,0.42,8.73,2.29
42055,-3.94,-5.85,22.78,0.48,8.73,2.15
42090,-4.67,-6.34,19.63,0.54,8.73,2.19
42125,-1.12,-6.59,18.50,0.60,8.73,2.20
42160,3.24,-4.47,17.12,0.54,8.73,1.98
42195,6.79,-0.69,16.73,0.67,8.73,1.55
42230,10.22,2.24,17.82,1.01,8.73,1.24
42265,11.00,1.29,19.23,1.48,8.73,1.16
42300,11.60,-3.80,20.57,1.61,8.73,1.37
42336,12.49,-6.21,24.07,1.48,8.73,1.54
42370,11.52,-7.93,28.24,1.34,8.73,1.60
42405,10.47,-8.34,31.41,1.20,8.73,1.50
42440,7.73,-6.96,34.55,1.23,8.73,1.36
42475,4.79,-5.67,34.31,1.33,8.73,1.18
42510,1.38,-6.02,35.42,1.58,8.73,1.12
42545,-0.51,-6.93,33.32,1.87,8.73,1.26
42580,-3.19,-9.72,29.78,1.88,8.73,1.55
42615,-5.61,-8.77,27.40,1.70,8.73,1.80
42650,-6.90,-8.65,24.89,1.41,8.73,1.97
42685,-8.97,-6.34,22.16,1.06,8.73,1.97
42725,-6.50,-3.11,19.39,0.83,8.73,1.81
42760,-0.60,-0.76,17.35,0.76,8.73,1.61
42795,1.33,-0.49,15.38,0.82,8.73,1.48
42831,3.51,-0.03,15.79,0.89,8.73,1.44
42865,6.79,-2.01,16.07,0.96,8.73,1.44
42900,8.79,-2.28,16.94,0.99,8.73,1.48
42935,10.15,-4.98,18.77,0.90,8.73,1.53
42970,11.00,-6.18,22.25,0.73,8.73,1.52
43005,11.86,-5.81,26.79,0.53,8.73,1.38
43040,10.80,-6.53,31.53,0.50,8.73,1.17
43075,9.41,-3.61,33.85,0.60,8.73,0.92
43110,6.64,-4.30,35.79,0.83,8.73,0.87
43146,3.29,-3.72,36.79,1.08,8.73,1.07
43180,0.25,-5.99,35.46,1.13,8.73,1.36
43215,-2.97,-4.87,33.81,1.08,8.73,1.54
43250,-4.67,-4.02,30.29,1.00,8.73,1.56
43286,-4.77,-2.93,25.70,0.95,8.73,1.56
43320,-5.71,-2.65,22.58,0.89,8.73,1.53
43355,-5.09,-2.15,20.18,0.93,8.73,1.53
43391,-4.49,-1.15,18.22,0.96,8.73,1.53
43425,-1.69,-0.69,16.16,0.99,8.73,1.54
43460,2.49,-1.06,16.23,1.06,8.73,1.58
43495,5.32,-1.70,14.91,1.11,8.73,1.62
43530,7.37,-2.90,15.57,1.13,8.73,1.69
43565,9.45,-4.99,19.45,1.02,8.73,1.79
43600,11.89,-6.61,22.00,0.91,8.73,1.83
43635,12.88,-5.74,25.55,0.84,8.73,1.81
43670,11.37,-5.09,29.66,0.84,8.73,1.81
43705,9.82,-6.39,31.66,0.83,8.73,1.80
43740,8.12,-6.47,34.69,0.87,8.73,1.80
43775,3.94,-6.68,35.26,0.82,8.73,1.88
43810,0.79,-5.92,34.73,0.72,8.73,1.94
43846,-2.32,-5.53,32.22,0.63,8.73,1.88
43880,-4.34,-4.63,29.57,0.56,8.73,1.78
43915,-6.24,-3.54,27.93,0.46,8.73,1.69
43950,-6.12,-2.47,25.20,0.35,8.73,1.56
43985,-6.55,-0.98,22.93,0.32,8.73,1.41
44020,-7.53,2.18,20.66,0.43,8.73,1.29
44055,-2.41,0.69,18.72,0.61,8.73,1.25
44090,2.19,-0.72,17.02,0.75,8.73,1.32
44125,5.02,-1.33,15.39,0.80,8.73,1.46
44160,7.77,-4.24,15.49,0.79,8.73,1.56
44195,10.03,-5.69,18.54,0.70,8.73,1.62
44231,11.83,-6.25,21.24,0.54,8.73,1.57
44265,12.78,-5.82,23.99,0.44,8.73,1.44
44300,13.06,-4.81,27.43,0.45,8.73,1.28
44335,10.89,-4.52,31.10,0.54,8.73,1.12
44371,8.01,-4.71,33.42,0.67,8.73,0.95
44405,5.74,-3.94,34.14,0.90,8.73,0.93
44440,2.85,-4.92,36.09,1.07,8.73,1.14
44475,-0.62,-5.82,34.58,1.10,8.73,1.39
44510,-3.63,-5.04,32.88,1.02,8.73,1.55
44545,-6.34,-4.74,30.91,0.92,8.73,1.62
44580,-6.58,-3.26,27.92,0.90,8.73,1.65
44615,-7.68,-2.29,24.88,0.98,8.73,1.67
44650,-5.96,-3.16,21.33,1.04,8.73,1.76
44685,-3.53,-2.91,17.70,1.04,8.73,1.80
44720,0.97,-2.62,16.52,1.03,8.73,1.83
44760,5.65,-2.39,16.37,1.01,8.73,1.80
44795,8.18,-2.60,16.33,1.05,8.73,1.73
44831,10.29,-1.62,17.44,1.13,8.73,1.73
44865,11.65,-3.26,20.25,1.21,8.73,1.77
44900,12.15,-4.66,23.20,1.22,8.73,1.84
44935,12.84,-5.90,26.10,1.16,8.73,1.91
44970,11.57,-7.89,28.34,1.07,8.73,1.92
45005,8.94,-3.78,31.08,0.92,8.73,1.80
45040,6.27,-6.80,32.31,0.87,8.73,1.79
45075,3.66,-7.28,34.03,0.88,8.73,1.79
45110,0.26,-6.43,33.88,0.85,8.73,1.80
45145,-2.32,-5.84,31.83,0.84,8.73,1.81
45180,-4.50,-3.66,30.31,0.91,8.73,1.76
45215,-7.03,-3.95,28.60,1.00,8.73,1.78
45251,-7.74,-4.99,26.16,1.09,8.73,1.83
45285,-5.17,-4.43,22.63,1.08,8.73,1.93
45321,-3.35,-4.38,18.30,1.06,8.73,1.95
45355,0.39,-1.39,15.93,0.99,8.73,1.82
45390,3.40,-2.58,14.76,0.98,8.73,1.68
45425,4.98,-2.43,14.70,1.02,8.73,1.61
45460,6.67,-2.64,15.27,1.02,8.73,1.65
45495,9.31,-3.86,16.56,0.98,8.73,1.75
45530,11.56,-6.32,19.78,0.82,8.73,1.80
45565,12.76,-6.69,23.07,0.69,8.73,1.76
45600,12.80,-5.33,26.40,0.72,8.73,1.74
45635,11.03,-4.83,28.75,0.80,8.73,1.80
45670,8.85,-6.17,31.24,0.84,8.73,1.91
45705,5.29,-7.20,32.09,0.76,8.73,2.01
45740,2.91,-6.44,34.26,0.66,8.73,2.01
45775,-0.32,-5.77,34.56,0.67,8.73,1.84
45810,-2.92,-4.68,32.33,0.83,8.73,1.66
45845,-5.41,-4.19,29.26,1.05,8.73,1.52
45880,-6.45,-4.89,25.62,1.11,8.73,1.55
45915,-6.93,-4.94,22.17,1.05,8.73,1.57
45950,-6.67,-2.88,19.71,0.90,8.73,1.48
45985,-2.65,-0.58,17.62,0.85,8.73,1.27
46020,1.98,3.32,16.50,0.92,8.73,0.86
46055,3.64,5.32,14.68,1.17,8.73,0.62
46090,5.33,3.99,14.09,1.52,8.73,0.65
46124,8.44,1.67,16.06,1.80,8.73,0.85
46158,10.10,-1.45,16.29,1.94,8.73,1.18
46193,11.24,-2.68,19.37,1.98,8.73,1.53
46228,11.48,-4.73,23.82,1.99,8.73,1.84
46263,12.86,-7.97,26.72,1.81,8.73,2.09
46299,11.49,-10.84,30.97,1.56,8.73,2.22
46334,8.20,-9.41,31.95,1.30,8.73,2.15
46369,5.89,-8.48,34.31,1.10,8.73,1.81
46403,2.27,-7.84,35.32,1.21,8.73,1.55
46438,-0.69,-6.45,34.32,1.35,8.73,1.61
46473,-3.45,-8.23,32.25,1.38,8.73,1.72
46508,-4.31,-7.95,27.90,1.20,8.73,1.79
46543,-5.70,-5.43,23.87,0.91,8.73,1.74
46578,-6.40,-3.75,21.78,0.74,8.73,1.59
46612,-5.70,-1.55,19.41,0.71,8.73,1.43
46647,-2.79,0.85,16.60,0.80,8.73,1.26
46682,-1.52,0.43,14.98,0.94,8.73,1.14
46717,1.12,0.12,15.34,1.13,8.73,1.16
46752,4.03,-0.29,16.36,1.32,8.73,1.24
46792,8.36,-1.80,17.33,1.51,8.73,1.41
46827,11.31,-3.42,20.50,1.62,8.73,1.65
46862,12.24,-6.36,23.35,1.63,8.73,1.91
46897,11.94,-8.09,27.57,1.53,8.73,2.12
46932,11.42,-9.46,30.43,1.39,8.73,2.31
46967,9.07,-9.41,33.57,1.19,8.73,2.39
47002,5.19,-11.50,35.11,1.00,8.73,2.43
47037,2.85,-9.60,35.87,0.75,8.73,2.48
47072,-0.64,-8.65,35.37,0.57,8.73,2.32
47107,-4.39,-8.48,33.58,0.45,8.73,2.13
47142,-5.02,-7.02,30.49,0.25,8.73,1.98
47177,-6.43,-4.48,26.90,0.12,8.73,1.73
47212,-8.13,-0.85,25.36,0.07,8.73,1.39
47247,-7.33,1.45,23.59,0.14,8.73,1.07
47282,-5.72,4.51,20.48,0.43,8.73,0.74
47318,-0.50,5.37,20.59,0.83,8.73,0.50
47352,5.75,5.29,21.16,1.28,8.73,0.56
47387,9.08,-0.55,19.99,1.64,8.73,0.87
47422,11.55,-3.27,21.71,1.79,8.73,1.23
47457,12.80,-5.78,25.40,1.72,8.73,1.54
47492,13.03,-7.06,28.86,1.58,8.73,1.81
47527,12.09,-11.04,32.49,1.54,8.73,1.98
47562,9.33,-8.80,36.24,1.42,8.73,2.05
47597,5.60,-9.45,36.28,1.24,8.73,2.19
47632,2.79,-11.94,36.35,1.03,8.73,2.36
47667,-0.66,-8.64,36.20,0.76,8.73,2.39
47702,-2.49,-8.77,32.55,0.60,8.73,2.28
47738,-5.06,-7.47,30.14,0.49,8.73,2.09
47772,-6.31,-5.73,27.43,0.36,8.73,1.92
47807,-7.71,-4.77,24.38,0.27,8.73,1.70
47842,-6.55,-1.24,21.68,0.25,8.73,1.44
47877,-3.40,-0.34,18.40,0.35,8.73,1.24
47912,0.55,0.39,17.11,0.60,8.73,1.13
47947,3.56,-0.88,16.63,0.76,8.73,1.16
47982,6.62,-1.99,17.07,0.93,8.73,1.29
48017,10.07,-3.76,17.98,0.98,8.73,1.44
48052,11.47,-4.67,20.72,1.06,8.73,1.53
48087,12.39,-5.17,23.33,1.14,8.73,1.64
48122,12.58,-5.86,26.98,1.26,8.73,1.74
48157,11.07,-6.68,30.77,1.35,8.73,1.94
48192,9.02,-8.73,32.74,1.35,8.73,2.21
48228,5.84,-9.84,33.84,1.19,8.73,2.39
48262,2.18,-10.36,34.63,0.95,8.73,2.51
48297,-0.03,-8.90,34.39,0.76,8.73,2.47
48332,-2.65,-8.72,32.60,0.61,8.73,2.36
48368,-5.27,-6.68,30.30,0.52,8.73,2.20
48402,-5.82,-5.04,26.42,0.45,8.73,2.04
48437,-5.89,-4.37,22.28,0.42,8.73,1.86
48472,-4.48,-2.99,19.39,0.45,8.73,1.74
48506,-3.95,-2.58,17.41,0.50,8.73,1.64
48541,-1.66,-2.44,16.52,0.57,8.73,1.59
48576,0.87,-1.79,14.18,0.64,8.73,1.53
48611,5.95,-2.97,15.68,0.71,8.73,1.51
48646,9.82,-3.42,17.00,0.76,8.73,1.50
48681,11.50,-2.61,18.78,0.91,8.73,1.45
48716,12.76,-3.32,21.35,1.05,8.73,1.48
48751,12.67,-4.99,23.83,1.19,8.73,1.58
48786,12.05,-6.12,27.02,1.29,8.73,1.72
48825,10.08,-6.64,30.21,1.25,8.73,1.82
48859,8.74,-7.60,32.86,1.21,8.73,1.86
48894,4.82,-7.09,33.88,1.18,8.73,1.81
48929,0.91,-6.88,33.51,1.28,8.73,1.73
48965,-2.03,-5.69,32.76,1.47,8.73,1.63
49000,-4.11,-5.97,31.25,1.70,8.73,1.68
49034,-5.24,-6.69,28.68,1.83,8.73,1.86
49069,-6.60,-8.49,24.88,1.77,8.73,2.08
49104,-6.49,-8.01,21.34,1.66,8.73,2.26
49139,-6.53,-8.86,17.87,1.37,8.73,2.30
49174,-3.25,-5.57,15.96,1.11,8.73,2.18
49209,0.36,-4.30,15.17,0.99,8.73,2.04
49244,4.02,-2.18,14.66,0.98,8.73,1.90
49279,7.22,-1.77,15.31,1.03,8.73,1.81
49315,10.21,-2.72,17.93,1.15,8.73,1.77
49349,11.71,-3.97,20.67,1.32,8.73,1.79
49383,12.14,-2.06,23.34,1.45,8.73,1.96
49418,12.34,-4.52,26.58,1.64,8.73,2.23
49453,11.11,-6.44,29.76,1.63,8.73,2.61
49489,7.63,-9.04,32.46,1.41,8.73,2.82
49523,5.88,-9.83,33.94,1.10,8.73,2.83
49558,3.03,-8.13,34.98,0.78,8.73,2.67
49593,-0.93,-6.78,36.47,0.78,8.73,2.26
49628,-3.25,-6.46,35.40,0.88,8.73,2.07
49663,-5.34,-5.37,32.61,1.11,8.73,2.02
49698,-6.87,-7.96,28.28,1.24,8.73,2.11
49733,-6.30,-5.91,24.47,1.14,8.73,2.16
49768,-4.43,-5.60,20.60,1.00,8.73,2.10
49803,-2.31,-2.49,18.31,0.82,8.73,1.93
49837,-0.19,-2.91,16.36,0.83,8.73,1.80
49872,1.60,-3.25,16.35,0.81,8.73,1.73
49907,5.50,-3.08,17.67,0.80,8.73,1.77
49942,9.67,-5.27,18.44,0.76,8.73,1.81
49978,11.34,-5.23,21.77,0.71,8.73,1.77
50012,11.76,-5.68,24.47,0.67,8.73,1.69
50046,13.09,-5.75,27.54,0.66,8.73,1.60
50081,11.83,-6.04,31.32,0.76,8.73,1.52
50116,8.94,-4.19,34.20,0.81,8.73,1.44
50151,6.53,-6.86,35.46,0.92,8.73,1.38
50186,2.99,-5.44,37.13,1.07,8.73,1.41
50221,0.13,-5.30,36.57,1.19,8.73,1.49
50257,-2.85,-6.08,34.33,1.25,8.73,1.58
50291,-5.80,-4.92,31.92,1.26,8.73,1.68
50325,-5.86,-5.03,28.14,1.19,8.73,1.79
50360,-6.77,-3.77,24.88,1.04,8.73,1.78
50395,-3.57,-1.98,22.12,0.89,8.73,1.65
50430,-3.07,-0.62,18.85,0.85,8.73,1.49
50465,-0.08,-0.11,17.33,0.96,8.73,1.43
50499,3.02,-1.02,17.18,1.04,8.73,1.50
50534,6.18,-1.57,16.48,1.11,8.73,1.59
50569,9.46,-3.02,18.62,1.12,8.73,1.68
50604,12.18,-2.39,21.70,1.18,8.73,1.75
50639,12.46,-3.40,23.85,1.20,8.73,1.83
50674,12.10,-5.80,27.01,1.24,8.73,1.91
50709,11.24,-5.80,30.06,1.25,8.73,2.03
50744,9.11,-7.07,33.22,1.21,8.73,2.07
50779,5.84,-6.75,35.71,1.10,8.73,2.02
50815,3.07,-7.28,36.49,1.08,8.73,1.93
50854,-0.70,-6.69,35.54,1.20,8.73,1.79
50889,-3.84,-4.98,33.61,1.35,8.73,1.75
50924,-5.54,-5.20,30.35,1.52,8.73,1.82
50959,-6.38,-7.14,26.74,1.56,8.73,2.00
50994,-8.59,-7.12,23.93,1.44,8.73,2.14
51029,-6.16,-7.04,21.91,1.29,8.73,2.29
51064,-4.47,-6.75,18.92,1.10,8.73,2.32
51100,-1.05,-6.00,16.89,0.95,8.73,2.32
51134,2.60,-5.92,16.87,0.78,8.73,2.33
51169,6.57,-8.05,16.71,0.60,8.73,2.32
51204,9.56,-5.41,18.40,0.41,8.73,2.25
51239,11.02,-6.35,21.40,0.37,8.73,2.08
51274,12.77,-3.94,25.58,0.38,8.73,1.91
51309,13.33,-4.25,29.20,0.51,8.73,1.84
51343,10.86,-5.20,32.48,0.64,8.73,1.81
51378,9.25,-5.56,34.89,0.71,8.73,1.78
51413,5.77,-5.33,35.84,0.71,8.73,1.75
51449,2.41,-5.48,36.09,0.73,8.73,1.72
51483,-0.83,-6.06,35.78,0.68,8.73,1.74
51518,-3.85,-5.08,34.11,0.63,8.73,1.72
51553,-6.18,-4.73,31.91,0.50,8.73,1.68
51588,-5.09,-1.13,28.33,0.41,8.73,1.55
51623,-6.71,-1.54,23.60,0.43,8.73,1.36
51658,-5.03,2.42,21.39,0.62,8.73,1.29
51693,-3.39,0.78,19.20,0.80,8.73,1.24
51728,0.13,0.96,17.68,0.95,8.73,1.26
51763,2.46,-0.17,17.77,1.07,8.73,1.37
51798,5.54,-1.57,18.48,1.13,8.73,1.48
51832,9.76,-4.65,20.47,1.12,8.73,1.63
51867,12.70,-6.64,23.14,0.94,8.73,1.72
51902,13.14,-5.20,27.04,0.77,8.73,1.70
51937,12.84,-7.52,29.09,0.74,8.73,1.63
51972,11.70,-5.47,31.51,0.73,8.73,1.52
52007,9.11,-4.66,33.44,0.84,8.73,1.51
52042,5.57,-6.27,34.38,0.89,8.73,1.64
52077,2.33,-6.31,36.28,0.90,8.73,1.75
52112,-0.66,-6.47,35.65,0.88,8.73,1.81
52147,-3.68,-5.63,34.12,0.87,8.73,1.81
52182,-5.98,-5.56,31.66,0.89,8.73,1.83
52217,-6.69,-4.73,28.25,0.94,8.73,1.83
52252,-7.52,-4.37,25.18,0.88,8.73,1.83
52287,-3.67,-3.64,22.01,0.85,8.73,1.81
52322,-3.26,-1.49,19.44,0.86,8.73,1.80
52357,0.31,-1.54,16.96,0.84,8.73,1.71
52392,5.44,-2.93,17.40,0.83,8.73,1.74
52427,8.69,-5.48,17.67,0.72,8.73,1.83
52462,10.37,-6.59,19.41,0.52,8.73,1.89
52497,12.18,-6.91,21.24,0.32,8.73,1.82
52532,12.84,-4.93,24.47,0.27,8.73,1.64
52567,12.18,-3.92,28.00,0.41,8.73,1.50
52602,11.30,-3.20,31.47,0.60,8.73,1.48
52637,9.07,-4.42,34.51,0.80,8.73,1.55
52672,6.03,-5.09,35.77,0.84,8.73,1.68
52707,2.28,-6.02,37.25,0.81,8.73,1.81
52742,-0.24,-5.47,36.27,0.73,8.73,1.86
52777,-3.79,-4.85,35.26,0.70,8.73,1.81
52812,-6.34,-4.64,32.88,0.67,8.73,1.78
52847,-6.86,-2.38,30.32,0.73,8.73,1.71
52887,-5.37,-1.37,26.44,0.79,8.73,1.66
52922,-5.23,-3.05,21.97,0.86,8.73,1.65
52957,-1.43,-1.15,19.31,0.90,8.73,1.67
52992,0.90,-2.20,16.79,0.93,8.73,1.69
53027,5.19,-4.11,17.38,0.90,8.73,1.79
53062,7.07,-6.02,17.08,0.70,8.73,1.95
53097,10.51,-7.20,20.16,0.51,8.73,1.99
53132,12.74,-7.78,23.77,0.29,8.73,1.91
53167,12.34,-5.02,28.24,0.21,8.73,1.71
53202,12.60,-4.93,30.21,0.39,8.73,1.63
53237,10.67,-4.55,33.87,0.58,8.73,1.67
53272,8.20,-6.14,36.14,0.71,8.73,1.84
53307,4.52,-7.01,37.90,0.71,8.73,1.96
53342,1.05,-6.91,38.55,0.60,8.73,2.01
53378,-2.96,-6.82,37.39,0.53,8.73,1.94
53412,-4.71,-4.31,34.55,0.50,8.73,1.82
53447,-5.16,-3.35,29.96,0.42,8.73,1.69
53482,-7.20,-1.14,27.68,0.47,8.73,1.52
53517,-5.03,-1.51,24.46,0.57,8.73,1.42
53552,-2.77,0.69,21.63,0.71,8.73,1.33
53587,0.23,-0.39,19.66,0.85,8.73,1.32
53622,2.76,-2.00,18.32,0.98,8.73,1.42
53657,7.20,-1.64,18.50,1.02,8.73,1.58
53692,10.20,-3.92,20.87,1.09,8.73,1.68
53727,12.00,-3.80,23.85,1.12,8.73,1.74
53761,12.28,-3.34,25.43,1.20,8.73,1.83
53796,12.66,-5.56,28.84,1.30,8.73,1.97
53831,11.75,-7.73,32.31,1.37,8.73,2.18
53866,8.94,-6.57,35.43,1.28,8.73,2.33
53901,6.00,-9.30,37.16,1.13,8.73,2.42
53936,2.66,-8.79,39.44,1.02,8.73,2.41
53971,-0.48,-6.30,38.07,1.00,8.73,2.23
54006,-3.32,-7.35,35.04,1.03,8.73,2.17
54041,-5.16,-5.30,31.75,1.15,8.73,2.12
54076,-4.65,-7.33,27.41,1.27,8.73,2.21
54112,-6.00,-6.16,24.34,1.34,8.73,2.40
54146,-6.59,-9.71,19.99,1.35,8.73,2.66
54181,-2.90,-8.47,18.65,1.12,8.73,2.77
54216,1.81,-9.70,17.95,0.83,8.73,2.65
54251,5.63,-6.49,17.54,0.71,8.73,2.40
54286,8.20,-2.89,19.38,0.65,8.73,2.20
54321,9.88,-5.33,20.19,0.72,8.73,2.05
54357,12.23,-5.05,23.44,0.74,8.73,1.97
54391,12.47,-3.85,27.72,0.81,8.73,1.94
54426,11.61,-5.87,31.79,0.90,8.73,1.98
54461,10.55,-7.17,34.88,0.96,8.73,2.10
54496,7.87,-6.15,37.31,0.91,8.73,2.19
54531,4.28,-8.71,37.87,0.82,8.73,2.24
54566,0.72,-6.59,37.16,0.75,8.73,2.12
54601,-2.96,-5.81,35.97,0.76,8.73,1.98
54636,-4.76,-4.26,33.71,0.80,8.73,1.89
54671,-4.53,-4.53,29.03,0.89,8.73,1.88
54706,-6.67,-3.90,25.85,0.90,8.73,1.90
54741,-5.58,-4.45,22.28,0.89,8.73,1.93
54776,-3.51,-3.56,19.45,0.86,8.73,1.98
54811,-6.02,-2.78,19.15,0.90,8.73,2.11
54846,2.12,-5.09,18.84,0.79,8.73,2.07
54881,7.27,-4.23,17.75,0.76,8.73,2.07
54921,10.00,-3.88,20.48,0.81,8.73,1.95
54956,12.98,-4.24,23.72,0.90,8.73,1.85
54991,13.37,-4.02,26.37,0.93,8.73,1.84
55026,12.28,-5.03,29.37,0.99,8.73,1.87
55061,11.34,-7.26,32.30,0.97,8.73,1.90
55096,9.38,-5.95,35.45,0.89,8.73,1.78
55131,5.87,-5.83,36.58,0.87,8.73,1.63
55166,2.82,-5.53,37.21,1.00,8.73,1.47
55201,-0.73,-5.11,36.84,1.17,8.73,1.43
55236,-3.30,-5.92,34.55,1.31,8.73,1.51
55271,-5.51,-6.26,31.98,1.39,8.73,1.63
55306,-7.38,-5.22,28.88,1.27,8.73,1.73
55342,-6.73,-4.20,25.36,1.16,8.73,1.80
55377,-5.65,-3.18,22.54,1.14,8.73,1.79
55411,-2.56,-1.87,20.02,1.08,8.73,1.72
55446,1.63,-1.68,18.11,1.15,8.73,1.69
55481,5.65,-0.84,18.54,1.22,8.73,1.63
55516,8.41,-2.25,18.79,1.31,8.73,1.71
55551,10.38,-3.91,21.39,1.36,8.73,1.80
55586,11.77,-5.13,23.65,1.29,8.73,1.93
55621,12.83,-6.71,26.28,1.22,8.73,2.01
55656,13.12,-6.60,30.12,1.20,8.73,2.06
55691,10.95,-7.02,32.90,1.12,8.73,2.17
55726,8.13,-7.72,35.93,1.07,8.73,2.24
55760,5.18,-7.48,36.05,0.93,8.73,2.17
55795,1.84,-7.21,35.69,0.82,8.73,2.09
55830,-1.70,-7.01,35.49,0.76,8.73,1.97
55865,-4.32,-5.68,34.12,0.72,8.73,1.90
55900,-5.95,-6.18,31.39,0.66,8.73,1.87
55935,-7.50,-4.17,29.57,0.51,8.73,1.78
55970,-7.06,-2.34,26.24,0.42,8.73,1.60
56005,-5.33,1.24,23.45,0.43,8.73,1.37
56040,-1.42,0.21,20.40,0.61,8.73,1.36
56074,1.98,-3.35,18.05,0.73,8.73,1.53
56109,5.06,-3.92,18.17,0.72,8.73,1.73
56144,9.84,-6.88,18.73,0.61,8.73,1.86
56179,11.55,-6.10,22.46,0.50,8.73,1.81
56214,12.88,-5.49,25.08,0.52,8.73,1.68
56249,13.47,-4.17,27.66,0.64,8.73,1.59
56283,11.74,-5.15,30.84,0.83,8.73,1.59
56318,10.54,-5.96,33.78,0.88,8.73,1.61
56353,7.92,-6.33,36.58,0.97,8.73,1.57
56388,3.91,-5.66,37.02,1.06,8.73,1.43
56423,1.00,-6.05,37.09,1.31,8.73,1.41
56458,-2.20,-5.67,35.00,1.37,8.73,1.53
56493,-4.94,-6.22,32.91,1.37,8.73,1.70
56528,-6.39,-6.04,30.53,1.30,8.73,1.83
56563,-7.41,-5.66,26.66,1.22,8.73,1.91
56598,-5.61,-4.07,23.70,1.16,8.73,1.98
56633,-4.47,-4.70,19.95,1.12,8.73,2.01
56668,0.96,-3.56,19.10,1.07,8.73,2.01
56703,3.81,-3.44,18.14,1.02,8.73,1.96
56738,7.20,-1.99,18.47,1.04,8.73,1.88
56773,9.28,-2.36,19.27,1.12,8.73,1.84
56808,10.93,-3.13,21.80,1.23,8.73,1.85
56843,12.99,-4.52,24.13,1.30,8.73,1.92
56878,12.73,-7.22,28.01,1.16,8.73,1.98
56913,11.79,-7.66,30.72,1.02,8.73,2.00
56953,8.51,-7.63,34.26,0.98,8.73,1.98
56988,5.83,-6.62,35.66,0.86,8.73,1.84
57023,3.04,-6.12,35.71,0.81,8.73,1.83
57058,-0.60,-6.90,35.80,0.84,8.73,1.82
57093,-2.96,-6.66,32.94,0.77,8.73,1.80
57128,-6.17,-5.92,31.40,0.65,8.73,1.81
57163,-5.44,-2.52,28.17,0.53,8.73,1.68
57198,-6.24,-2.58,24.44,0.55,8.73,1.54
57233,-5.99,0.96,22.06,0.60,8.73,1.40
57268,-3.80,-1.00,18.85,0.72,8.73,1.34
57303,-0.81,0.51,17.71,0.87,8.73,1.33
57338,2.72,-0.28,17.55,0.96,8.73,1.34
57373,6.31,-2.63,18.26,1.01,8.73,1.46
57408,9.17,-3.92,19.56,0.99,8.73,1.58
57443,11.77,-6.35,23.26,0.87,8.73,1.64
57478,12.19,-6.92,26.86,0.79,8.73,1.59
57513,13.61,-5.89,29.89,0.67,8.73,1.42
57548,11.06,-4.93,34.01,0.63,8.73,1.19
57583,8.26,-5.83,35.48,0.80,8.73,1.10
57618,5.53,-5.27,35.38,1.01,8.73,1.12
57653,1.69,-5.47,37.13,1.14,8.73,1.37
57688,-1.23,-7.13,36.35,1.11,8.73,1.64
57723,-4.01,-5.84,34.45,0.93,8.73,1.80
57758,-5.36,-4.87,30.57,0.78,8.73,1.83
57793,-5.19,-4.81,26.48,0.62,8.73,1.76
57828,-5.75,0.04,24.49,0.60,8.73,1.64
57863,-5.15,-2.31,20.77,0.72,8.73,1.63
57898,-2.17,-1.27,18.82,0.80,8.73,1.71
57933,0.38,-3.19,17.08,0.84,8.73,1.86
57968,4.92,-3.60,17.49,0.78,8.73,1.92
58003,8.12,-5.46,17.73,0.72,8.73,1.92
58038,10.88,-4.05,20.42,0.63,8.73,1.91
58074,12.78,-6.93,22.50,0.52,8.73,1.83
58108,12.50,-6.42,26.30,0.45,8.73,1.67
58143,11.99,-6.11,30.27,0.46,8.73,1.52
58178,11.38,-4.92,34.20,0.58,8.73,1.44
58213,8.28,-5.26,36.44,0.73,8.73,1.41
58248,4.98,-5.10,37.48,0.83,8.73,1.46
58283,0.99,-5.76,36.85,0.85,8.73,1.51
58318,-2.09,-4.76,35.42,0.77,8.73,1.63
58353,-4.74,-4.93,33.65,0.69,8.73,1.67
58389,-4.46,-2.41,29.70,0.65,8.73,1.63
58423,-6.40,-1.82,26.14,0.66,8.73,1.54
58458,-4.61,-0.40,23.52,0.66,8.73,1.44
58493,-4.05,-1.12,20.66,0.77,8.73,1.42
58527,-1.66,0.45,18.80,0.88,8.73,1.42
58562,0.98,-2.28,17.75,0.97,8.73,1.54
58597,5.34,-2.94,18.23,1.00,8.73,1.65
58632,8.67,-3.98,18.53,0.98,8.73,1.79
58667,10.29,-5.19,21.34,0.94,8.73,1.81
58702,11.85,-6.42,23.36,0.86,8.73,1.80
58737,12.64,-6.77,27.46,0.81,8.73,1.75
58772,12.32,-5.56,31.63,0.84,8.73,1.70
58807,10.92,-6.18,34.18,0.84,8.73,1.69
58842,8.09,-5.89,35.95,0.93,8.73,1.69
58877,4.17,-6.66,36.24,0.95,8.73,1.73
58912,0.82,-7.12,36.17,0.95,8.73,1.81
58947,-1.85,-6.56,33.88,0.92,8.73,1.85
58986,-5.49,-6.07,32.73,0.93,8.73,1.83
59021,-5.47,-4.32,29.37,0.95,8.73,1.82
59056,-7.18,-4.61,26.29,0.92,8.73,1.82
59091,-5.12,-2.78,23.90,0.88,8.73,1.80
59126,-3.01,-3.09,20.03,0.89,8.73,1.85
59161,0.68,-3.54,19.29,0.94,8.73,1.93
59196,4.01,-5.94,18.03,0.84,8.73,2.06
59231,6.38,-5.90,17.69,0.71,8.73,2.15
59266,9.31,-5.37,19.26,0.68,8.73,2.05
59300,11.73,-3.75,22.69,0.75,8.73,1.95
59335,13.03,-2.97,26.01,0.88,8.73,1.96
59370,12.80,-2.85,28.74,1.13,8.73,2.07
59405,11.39,-6.51,31.37,1.22,8.73,2.29
59440,8.53,-7.53,34.40,1.07,8.73,2.30
59475,5.79,-8.79,35.42,0.94,8.73,2.26
59510,2.90,-6.77,37.95,0.85,8.73,2.14
59545,-0.75,-6.97,37.68,0.94,8.73,1.95
59579,-3.12,-5.35,35.74,1.03,8.73,1.86
59613,-5.43,-6.05,33.15,1.13,8.73,1.87
59648,-5.73,-5.00,29.00,1.22,8.73,1.90
59683,-6.64,-7.01,25.19,1.21,8.73,1.98
59718,-5.76,-4.55,22.35,1.16,8.73,2.03
59753,-3.29,-5.23,19.68,1.06,8.73,2.01
59788,0.55,-3.04,18.75,1.03,8.73,1.90
59823,5.39,-1.04,19.03,1.04,8.73,1.76
59858,9.20,-1.58,18.96,1.19,8.73,1.72
59893,10.80,-2.65,21.26,1.28,8.73,1.75
59928,10.96,-4.10,24.40,1.37,8.73,1.85
59963,12.72,-5.42,26.70,1.34,8.73,1.98
59999,12.45,-6.34,30.15,1.33,8.73,2.12
60032,11.75,-8.13,35.08,1.26,8.73,2.28
60067,7.66,-8.84,36.11,1.16,8.73,2.37
60102,4.94,-8.42,37.72,1.00,8.73,2.41
60137,1.48,-8.14,38.29,0.78,8.73,2.40
60172,-1.98,-7.26,36.17,0.70,8.73,2.32
60206,-4.07,-5.57,34.09,0.65,8.73,2.22
60241,-6.11,-5.41,31.72,0.78,8.73,2.15
60276,-6.10,-5.01,28.69,0.86,8.73,2.16
60311,-4.78,-5.97,24.01,0.92,8.73,2.24
60346,-2.27,-6.34,19.88,0.92,8.73,2.40
60382,0.31,-9.67,17.95,0.79,8.73,2.61
60416,2.79,-11.04,17.26,0.54,8.73,2.72
60451,4.91,-8.84,17.44,0.29,8.73,2.63
60486,8.16,-6.98,18.46,0.14,8.73,2.44
60520,10.42,-7.29,21.41,0.08,8.73,2.17
60555,12.51,-4.32,26.67,0.19,8.73,1.93
60590,13.48,-4.40,30.04,0.31,8.73,1.79
60625,11.75,-5.50,33.96,0.52,8.73,1.76
60660,9.38,-5.51,36.16,0.65,8.73,1.78
60695,5.77,-6.52,37.15,0.68,8.73,1.84
60730,2.67,-6.25,37.65,0.65,8.73,1.90
60765,-0.35,-6.43,36.89,0.52,8.73,1.92
60800,-3.68,-4.92,35.95,0.38,8.73,1.90
60835,-5.23,-2.41,33.79,0.22,8.73,1.77
60870,-5.92,-1.38,29.76,0.08,8.73,1.53
60905,-5.33,1.89,26.63,0.07,8.73,1.21
60940,-5.55,1.95,22.45,0.28,8.73,1.02
60975,-1.85,4.05,20.93,0.56,8.73,0.95
61015,1.45,0.61,19.02,0.82,8.73,1.05
61051,3.48,-0.59,18.43,0.94,8.73,1.31
61085,6.90,-5.15,19.71,0.90,8.73,1.59
61120,10.72,-6.17,23.61,0.77,8.73,1.67
61155,13.67,-6.95,26.23,0.56,8.73,1.66
61190,13.38,-5.50,30.14,0.54,8.73,1.49
61225,12.18,-5.82,32.98,0.63,8.73,1.41
61260,9.45,-4.57,35.85,0.78,8.73,1.30
61295,7.00,-5.69,37.57,0.92,8.73,1.23
61330,3.33,-6.64,38.18,1.11,8.73,1.27
61366,0.01,-5.27,38.21,1.27,8.73,1.45
61400,-2.97,-6.88,35.91,1.28,8.73,1.63
61435,-5.97,-5.98,34.04,1.14,8.73,1.77
61470,-6.37,-5.06,30.53,1.01,8.73,1.81
61506,-6.62,-3.18,27.20,0.88,8.73,1.71
61540,-5.82,-1.76,24.44,0.80,8.73,1.66
61575,-3.34,-1.34,21.57,0.89,8.73,1.65
61610,0.49,-1.12,20.21,0.95,8.73,1.64
61645,4.40,-2.65,19.65,0.95,8.73,1.70
61680,7.82,-5.55,19.99,0.89,8.73,1.88
61715,10.65,-6.07,23.04,0.73,8.73,1.89
61750,13.66,-9.30,26.20,0.53,8.73,1.83
61785,12.93,-6.49,29.66,0.33,8.73,1.62
61820,12.81,-4.38,32.29,0.35,8.73,1.45
61855,10.07,-6.15,35.22,0.53,8.73,1.28
61890,8.40,-3.41,37.69,0.70,8.73,1.30
61925,4.19,-5.95,38.13,0.86,8.73,1.44
61960,0.91,-5.60,37.51,0.97,8.73,1.59
61995,-2.35,-6.27,36.73,0.94,8.73,1.71
62030,-5.06,-4.47,35.42,0.88,8.73,1.74
62065,-5.77,-3.71,31.36,0.84,8.73,1.74
62100,-7.12,-3.23,28.17,0.87,8.73,1.67
62136,-5.25,-1.75,25.28,0.77,8.73,1.58
62170,-3.71,-0.71,21.76,0.88,8.73,1.53
62205,0.17,0.03,20.70,0.96,8.73,1.48
62240,3.27,-1.53,19.44,1.02,8.73,1.66
62275,5.52,-3.81,19.51,1.05,8.73,1.81
62310,9.83,-3.53,22.55,1.05,8.73,1.88
62346,12.80,-6.28,25.41,0.97,8.73,1.94
62380,13.47,-4.94,29.19,1.01,8.73,1.95
62415,13.47,-4.56,33.16,1.00,8.73,1.97
62450,11.17,-7.63,34.38,1.02,8.73,2.00
62484,8.07,-6.28,36.60,0.97,8.73,1.95
62519,5.21,-7.22,37.04,0.96,8.73,1.92
62554,1.97,-6.74,38.22,1.01,8.73,1.86
62589,-1.49,-6.90,37.49,1.05,8.73,1.87
62623,-4.55,-4.66,36.26,1.18,8.73,1.86
62658,-5.29,-5.12,31.97,1.42,8.73,1.91
62693,-5.92,-7.09,27.33,1.53,8.73,2.04
62728,-4.19,-5.46,24.67,1.48,8.73,2.21
62763,-4.71,-8.24,21.56,1.36,8.73,2.33
62798,-2.80,-5.94,19.70,1.22,8.73,2.25
62833,0.08,-3.69,18.75,1.07,8.73,2.13
62868,4.52,-6.30,19.35,1.05,8.73,2.15
62903,9.81,-3.94,21.84,1.06,8.73,2.13
62938,12.59,-5.53,25.09,1.06,8.73,2.12
62973,13.25,-5.93,27.55,1.08,8.73,2.15
63008,12.52,-5.16,30.39,1.13,8.73,2.20
63048,11.72,-6.42,34.12,1.16,8.73,2.40
63083,8.31,-8.56,36.44,1.05,8.73,2.62
63118,5.29,-9.39,38.00,0.85,8.73,2.71
63153,1.63,-8.28,39.67,0.51,8.73,2.65
63188,-0.79,-7.50,37.17,0.21,8.73,2.52
63223,-4.69,-5.21,35.51,0.26,8.73,2.24
63258,-4.44,-2.47,32.10,0.24,8.73,1.98
63293,-7.24,-2.58,29.38,0.35,8.73,1.84
63328,-6.19,-3.46,26.96,0.47,8.73,1.74
63363,-4.53,-1.49,24.22,0.61,8.73,1.82
63398,-0.69,-4.06,21.37,0.70,8.73,1.83
63433,2.72,-4.51,19.94,0.72,8.73,1.84
63467,7.06,-5.67,19.61,0.62,8.73,1.94
63502,9.49,-8.74,20.43,0.48,8.73,1.97
63537,11.14,-8.06,24.22,0.30,8.73,1.83
63572,12.97,-4.93,27.27,0.30,8.73,1.66
63607,12.58,-3.89,32.19,0.51,8.73,1.53
63642,11.75,-4.21,34.25,0.71,8.73,1.51
63677,8.83,-6.42,37.12,0.86,8.73,1.49
63712,6.11,-6.40,38.74,0.98,8.73,1.55
63747,2.30,-5.94,38.78,1.07,8.73,1.65
63782,-1.31,-7.61,38.56,1.10,8.73,1.73
63818,-3.14,-5.18,35.55,1.05,8.73,1.79
63852,-4.85,-5.70,32.27,1.00,8.73,1.83
63887,-6.84,-4.80,29.24,0.88,8.73,1.79
63923,-3.29,-2.00,25.95,0.80,8.73,1.73
63957,-1.78,-2.94,21.69,0.85,8.73,1.68
63992,-0.50,-0.69,19.36,0.91,8.73,1.64
64027,2.08,-1.64,18.45,0.93,8.73,1.71
64061,5.66,-3.66,18.15,0.97,8.73,1.77
64096,8.80,-3.75,19.61,0.90,8.73,1.83
64131,11.34,-5.54,23.15,0.87,8.73,1.83
64166,12.80,-5.26,25.41,0.79,8.73,1.79
64201,13.42,-5.60,29.35,0.77,8.73,1.76
64236,12.06,-6.17,32.59,0.79,8.73,1.69
64271,8.79,-5.89,35.00,0.77,8.73,1.63
64306,6.29,-7.01,37.27,0.87,8.73,1.65
64341,3.43,-5.52,39.03,0.90,8.73,1.72
64377,-0.54,-6.16,38.46,0.93,8.73,1.75
64411,-3.32,-4.90,35.66,0.88,8.73,1.72
64446,-5.26,-5.85,32.37,0.92,8.73,1.70
64481,-5.94,-3.37,29.34,0.89,8.73,1.65
64516,-6.82,-2.82,26.20,0.87,8.73,1.58
64551,-3.49,-1.35,22.89,0.93,8.73,1.52
64586,-5.05,-0.61,19.35,0.99,8.73,1.45
64621,-1.09,-0.36,19.43,1.10,8.73,1.43
64656,3.55,-0.61,19.72,1.18,8.73,1.45
64691,8.23,-0.88,19.48,1.34,8.73,1.52
64726,10.86,-2.41,22.62,1.47,8.73,1.62
64761,12.85,-6.46,24.41,1.44,8.73,1.80
64796,13.05,-6.22,28.04,1.36,8.73,1.91
64831,12.80,-7.53,31.45,1.23,8.73,1.97
64866,10.53,-7.53,34.46,1.13,8.73,1.99
64901,8.34,-7.56,36.42,1.08,8.73,1.97
64936,4.70,-7.96,37.08,1.08,8.73,2.00
64971,0.93,-7.21,37.96,1.03,8.73,2.09
65006,-2.59,-7.81,36.96,0.97,8.73,2.13
65041,-4.53,-4.54,34.09,0.90,8.73,2.10
65081,-5.41,-4.97,28.95,0.93,8.73,2.06
65116,-6.22,-6.00,25.43,0.91,8.73,2.08
65151,-7.37,-4.93,24.76,1.01,8.73,2.15
65186,-4.35,-6.30,20.16,0.91,8.73,2.20
65221,0.19,-4.17,17.66,0.85,8.73,2.08
65256,2.47,-2.34,19.21,0.78,8.73,1.97
65291,6.39,-3.39,18.86,0.84,8.73,1.80
65327,9.33,-2.38,20.78,0.87,8.73,1.76
65361,11.29,-4.68,23.35,0.89,8.73,1.75
65396,12.37,-5.36,27.09,0.86,8.73,1.69
65431,12.61,-5.82,30.81,0.77,8.73,1.63
65466,11.89,-5.75,33.73,0.80,8.73,1.50
65501,8.67,-5.32,35.73,0.85,8.73,1.33
65535,5.54,-3.64,35.80,0.96,8.73,1.23
65570,2.12,-5.48,37.61,1.19,8.73,1.31
65605,-1.02,-4.26,38.20,1.32,8.73,1.46
65640,-4.08,-6.19,35.65,1.44,8.73,1.61
65675,-5.67,-5.66,32.48,1.51,8.73,1.78
65710,-6.87,-6.42,29.11,1.48,8.73,1.95
65745,-5.84,-6.11,25.30,1.44,8.73,2.13
65780,-4.74,-5.54,22.32,1.35,8.73,2.23
65815,-1.90,-5.73,19.68,1.23,8.73,2.32
65850,1.61,-6.70,20.22,1.11,8.73,2.37
65884,5.36,-5.20,20.18,1.03,8.73,2.28
65919,7.73,-5.43,19.87,1.01,8.73,2.25
65954,10.94,-4.50,22.81,0.99,8.73,2.21
65989,13.51,-5.06,26.94,0.99,8.73,2.21
66024,13.99,-6.17,30.85,1.02,8.73,2.22
66059,12.32,-6.77,33.19,1.00,8.73,2.30
66095,9.40,-7.17,33.95,0.94,8.73,2.38
66129,6.06,-8.03,35.07,0.78,8.73,2.42
66164,3.21,-8.90,37.11,0.58,8.73,2.45
66199,0.89,-5.60,37.71,0.37,8.73,2.31
66234,-3.01,-6.89,35.31,0.28,8.73,2.13
66269,-4.61,-3.44,34.29,0.21,8.73,1.92
66304,-6.66,-2.32,30.65,0.24,8.73,1.75
66340,-6.55,-1.54,27.37,0.25,8.73,1.49
66374,-4.48,1.54,24.02,0.36,8.73,1.40
66409,-2.94,-1.01,21.01,0.65,8.73,1.37
66444,-0.66,0.21,20.38,0.79,8.73,1.46
66479,4.96,-3.07,20.41,0.84,8.73,1.63
66513,8.03,-2.93,19.23,0.84,8.73,1.68
66548,11.31,-4.22,21.96,0.88,8.73,1.69
66583,12.78,-4.93,24.84,0.91,8.73,1.67
66618,13.14,-4.98,26.97,0.95,8.73,1.67
66653,11.17,-4.73,30.24,0.98,8.73,1.66
66688,12.48,-7.70,34.18,1.03,8.73,1.70
66723,8.70,-6.36,37.15,1.04,8.73,1.69
66758,5.44,-6.42,36.53,1.10,8.73,1.67
