timestamp,accelX,accelY,accelZ,gyroX,gyroY,gyroZ
280279,10.70,-6.14,18.61,0.41,8.73,1.85
280315,11.79,-4.31,21.63,0.36,8.73,1.73
280349,13.15,-5.44,23.90,0.36,8.73,1.59
280384,12.87,-4.13,27.22,0.44,8.73,1.45
280419,11.29,-4.17,29.97,0.60,8.73,1.36
280454,8.89,-4.12,32.57,0.75,8.73,1.28
280489,5.63,-3.26,33.32,0.81,8.73,1.31
280524,3.20,-5.17,36.08,0.90,8.73,1.49
280559,0.86,-5.54,32.77,0.96,8.73,1.62
280594,-4.77,-6.75,34.06,0.72,8.73,1.86
280629,-4.88,-2.74,31.57,0.93,8.73,1.78
280664,-7.19,-2.55,29.50,1.03,8.73,1.88
280699,-7.43,-3.63,24.99,1.50,8.73,2.10
280739,-7.13,-7.51,19.93,1.54,8.73,2.46
280774,-3.72,-7.84,17.01,1.39,8.73,2.63
280809,-0.03,-7.25,15.38,1.12,8.73,2.53
280844,3.33,-4.82,15.66,0.92,8.73,2.40
280879,5.81,-4.39,15.89,0.89,8.73,2.19
280914,9.80,-2.44,19.03,0.91,8.73,2.06
280949,11.13,-2.70,21.08,1.04,8.73,2.04
280984,11.83,-5.13,23.22,1.02,8.73,2.10
281019,12.76,-4.89,27.65,1.02,8.73,2.19
281054,11.15,-7.84,30.99,1.03,8.73,2.33
281089,8.59,-6.18,32.98,0.82,8.73,2.28
281124,6.41,-7.36,33.80,0.60,8.73,2.04
281160,3.16,-6.61,36.20,0.53,8.73,1.83
281194,0.10,-3.10,35.19,0.74,8.73,1.43
281229,-2.11,-5.43,31.90,1.02,8.73,1.30
281264,-6.09,-6.39,31.40,0.95,8.73,1.47
281299,-7.24,-4.08,28.50,0.69,8.73,1.46
281334,-6.54,0.07,24.24,0.46,8.73,1.24
281369,-4.16,3.10,21.04,0.38,8.73,0.83
281404,-3.60,4.42,18.32,0.54,8.73,0.49
281439,-1.23,6.33,17.59,0.92,8.73,0.41
281474,-1.83,2.53,16.05,1.24,8.73,0.63
281509,4.07,-3.40,16.48,1.33,8.73,1.18
281544,9.12,-5.71,17.33,1.20,8.73,1.54
281579,10.69,-3.95,19.35,1.15,8.73,1.65
281614,11.74,-4.67,23.16,1.18,8.73,1.74
281649,13.06,-4.84,26.29,1.35,8.73,1.87
281684,12.20,-7.45,29.25,1.38,8.73,2.07
281719,9.22,-9.03,32.55,1.20,8.73,2.17
281754,7.50,-8.47,34.66,1.02,8.73,2.18
281789,3.90,-9.29,37.63,0.89,8.73,2.14
281825,0.13,-8.59,35.28,0.83,8.73,2.00
281859,-2.29,-7.02,34.70,0.80,8.73,1.94
281894,-4.80,-7.39,33.17,0.76,8.73,1.91
281929,-6.53,-7.14,29.14,0.58,8.73,1.88
281964,-5.49,-3.03,26.23,0.43,8.73,1.69
281999,-3.34,-0.74,22.81,0.49,8.73,1.52
282034,-2.44,-1.08,19.03,0.66,8.73,1.49
282070,-1.51,-1.40,17.97,0.85,8.73,1.54
282104,1.65,-4.49,17.11,0.93,8.73,1.59
282139,6.23,-4.98,16.18,0.97,8.73,1.69
282174,8.62,-1.78,17.06,1.12,8.73,1.73
282209,10.43,-0.15,23.35,1.43,8.73,1.77
282244,12.73,-3.58,25.09,1.76,8.73,1.96
282279,12.22,-5.26,28.64,1.91,8.73,2.30
282314,12.46,-10.35,31.72,1.82,8.73,2.69
282348,8.24,-11.57,34.69,1.48,8.73,2.83
282384,6.89,-10.14,37.21,1.00,8.73,2.58
282419,2.04,-10.41,38.51,0.80,8.73,2.42
282453,-0.01,-8.91,37.34,0.72,8.73,2.28
282488,-3.98,-7.10,34.85,0.55,8.73,2.14
282523,-5.81,-6.47,31.99,0.56,8.73,1.97
282558,-6.79,-5.60,27.84,0.43,8.73,1.75
282593,-6.19,-1.40,26.33,0.35,8.73,1.49
282628,-8.33,-1.51,23.14,0.51,8.73,1.28
282663,-6.30,0.85,21.16,0.74,8.73,1.19
282698,1.07,-1.17,20.68,1.02,8.73,1.23
282732,5.82,-1.88,19.89,1.27,8.73,1.26
282772,10.68,-2.70,20.99,1.47,8.73,1.46
282807,12.23,-0.06,25.21,1.74,8.73,1.61
282842,13.01,-4.65,26.95,2.03,8.73,1.93
282877,13.53,-9.83,29.72,2.06,8.73,2.28
282912,13.83,-12.68,35.20,1.88,8.73,2.62
282947,8.11,-10.79,37.59,1.49,8.73,2.82
282982,6.24,-13.01,37.21,1.17,8.73,2.97
283016,1.44,-13.66,39.13,0.82,8.73,2.93
283050,-1.26,-10.35,39.37,0.45,8.73,2.91
283084,-4.96,-7.70,39.13,-0.05,8.73,2.75
283119,-6.13,-6.47,34.47,-0.11,8.73,2.35
283154,-7.06,-2.02,30.90,-0.08,8.73,1.97
283189,-1.18,-3.20,25.95,0.11,8.73,1.67
283224,-1.32,0.74,23.43,0.42,8.73,1.56
283259,0.62,-0.70,21.59,0.61,8.73,1.44
283294,5.41,-0.08,21.87,0.79,8.73,1.33
283328,9.28,-1.74,21.66,0.96,8.73,1.35
283363,11.37,-3.16,25.16,1.35,8.73,1.35
283398,13.77,-4.36,26.84,1.57,8.73,1.48
283433,14.01,-5.59,31.10,1.58,8.73,1.68
283468,12.72,-7.97,34.07,1.51,8.73,1.91
283503,10.27,-9.62,36.03,1.45,8.73,2.02
283538,6.30,-9.14,37.95,1.36,8.73,2.08
283573,3.58,-9.42,37.91,1.20,8.73,2.16
283608,0.03,-9.68,35.85,1.12,8.73,2.18
283643,-4.10,-11.23,35.54,1.03,8.73,2.27
283678,-4.25,-7.66,32.39,1.03,8.73,2.21
283713,-7.13,-8.50,28.87,0.86,8.73,2.21
283748,-7.69,-7.53,26.36,0.76,8.73,2.18
283783,-4.20,-6.05,22.12,0.73,8.73,2.18
283818,-1.30,-4.19,18.82,0.69,8.73,2.10
283853,2.31,-4.66,16.82,0.64,8.73,1.98
283888,3.51,-4.31,16.72,0.57,8.73,1.86
283923,6.44,-3.50,17.98,0.61,8.73,1.70
283958,9.64,-2.86,18.21,0.65,8.73,1.64
283993,11.02,-2.61,23.02,0.82,8.73,1.56
284028,12.41,-3.51,25.45,0.97,8.73,1.53
284063,12.84,-4.95,27.52,1.04,8.73,1.55
284098,10.83,-6.68,31.40,1.06,8.73,1.58
284133,8.62,-5.83,33.75,1.04,8.73,1.46
284168,6.01,-5.99,34.36,1.10,8.73,1.42
284203,2.60,-5.59,37.01,1.18,8.73,1.40
284238,-0.82,-7.81,36.91,1.23,8.73,1.57
284273,-3.24,-6.21,35.73,1.24,8.73,1.67
284308,-5.40,-6.71,32.59,1.20,8.73,1.81
284343,-6.15,-5.10,28.26,1.15,8.73,1.82
284378,-5.15,-4.79,24.66,1.11,8.73,1.87
284413,-6.46,-3.00,21.16,1.21,8.73,1.94
284448,-3.07,-4.60,19.76,1.12,8.73,1.91
284483,2.43,-1.58,19.46,1.12,8.73,1.79
284518,6.00,2.50,18.34,1.30,8.73,1.39
284553,8.59,2.42,20.46,1.65,8.73,1.22
284588,11.03,-0.12,20.54,1.83,8.73,1.46
284623,11.69,-2.77,22.83,1.87,8.73,1.81
284658,6.59,-10.00,23.99,2.06,8.73,2.13
284693,11.06,-10.81,30.62,1.41,8.73,2.08
284728,13.25,-10.01,37.56,1.22,8.73,2.04
284762,8.87,-11.00,38.09,1.20,8.73,2.03
284801,4.62,-7.68,37.98,1.19,8.73,1.61
284835,1.37,-6.08,37.34,1.36,8.73,1.47
284870,-2.47,-7.66,37.33,1.38,8.73,1.63
284905,-4.26,-7.31,34.80,1.34,8.73,1.86
284940,-5.33,-7.78,30.30,1.05,8.73,1.96
284975,-6.39,-5.47,27.23,0.88,8.73,1.91
285010,-4.04,-1.20,25.29,0.82,8.73,1.77
285045,-2.79,-2.00,21.76,0.79,8.73,1.62
285080,-0.43,0.82,18.94,0.90,8.73,1.42
285115,2.79,1.18,21.92,1.06,8.73,1.35
285150,6.08,0.72,20.46,1.25,8.73,1.40
285185,9.17,-1.67,22.56,1.36,8.73,1.58
285219,12.04,-4.39,24.61,1.41,8.73,1.76
285253,12.66,-6.29,28.57,1.38,8.73,1.90
285288,13.22,-7.00,32.50,1.21,8.73,1.97
285322,11.58,-9.73,36.36,1.12,8.73,1.95
285357,9.10,-7.40,39.57,1.15,8.73,1.94
285392,5.02,-6.91,39.66,1.10,8.73,1.90
285427,1.54,-7.32,39.60,1.13,8.73,1.95
285462,-2.11,-8.96,37.78,1.22,8.73,1.96
285498,-4.18,-5.44,35.48,1.12,8.73,2.01
285532,-5.95,-6.28,31.22,1.05,8.73,2.03
285567,-6.11,-6.85,26.93,1.02,8.73,2.04
285602,-3.76,-2.88,24.51,1.00,8.73,1.99
285637,-2.39,-4.28,21.05,0.87,8.73,1.93
285672,-5.57,-4.92,20.48,0.85,8.73,1.81
285707,2.29,-5.25,21.72,0.83,8.73,1.93
285742,5.43,-5.32,20.45,0.69,8.73,1.99
285777,9.80,-8.56,23.70,0.67,8.73,1.94
285812,14.04,-5.67,28.74,0.42,8.73,1.87
285847,13.84,-5.88,32.29,0.42,8.73,1.71
285882,13.64,-8.00,34.06,0.48,8.73,1.55
285917,11.09,-5.43,37.14,0.70,8.73,1.42
285952,8.54,-4.33,39.66,0.84,8.73,1.50
285987,4.57,-6.75,40.51,0.99,8.73,1.69
286022,0.45,-7.73,41.04,1.03,8.73,1.74
286057,-2.00,-2.86,39.63,0.99,8.73,1.79
286092,-4.24,-6.88,34.56,0.94,8.73,1.83
286127,-5.36,-4.64,30.99,0.91,8.73,1.86
286162,-6.13,-3.66,27.55,0.96,8.73,1.79
286197,-6.32,-1.20,25.80,0.90,8.73,1.81
286232,0.39,-4.22,24.29,1.05,8.73,1.78
286267,4.29,-2.78,21.13,1.17,8.73,1.86
286302,6.04,-1.45,24.33,1.25,8.73,1.93
286337,10.13,-2.28,23.72,1.27,8.73,1.89
286372,11.17,-6.43,25.78,1.40,8.73,1.93
286407,12.60,-3.86,27.90,1.44,8.73,1.99
286441,13.83,-6.30,30.94,1.29,8.73,2.13
286475,11.74,-11.57,33.57,1.14,8.73,2.14
286509,10.17,-4.95,37.31,0.92,8.73,1.98
286544,6.88,-9.09,39.07,0.88,8.73,1.85
286579,3.81,-8.28,40.33,0.93,8.73,1.79
286614,0.41,-5.01,39.86,1.02,8.73,1.70
286649,-3.77,-9.51,41.02,0.86,8.73,1.92
286683,-3.81,-7.96,35.72,1.03,8.73,1.93
286718,-7.12,-6.14,33.25,0.96,8.73,1.88
286753,-4.39,-2.41,29.63,0.76,8.73,1.82
286788,-3.17,-2.68,25.09,0.79,8.73,1.82
286828,0.22,0.43,23.98,0.93,8.73,1.61
286863,4.09,-1.87,22.77,1.02,8.73,1.64
286898,5.94,-2.87,21.82,1.07,8.73,1.69
286933,9.26,-5.48,23.68,1.17,8.73,1.74
286968,12.48,-4.69,26.73,1.13,8.73,1.82
287003,12.95,-5.66,29.81,1.01,8.73,1.82
287038,13.01,-5.89,33.71,0.97,8.73,1.85
287073,12.00,-11.60,36.57,1.07,8.73,1.81
287108,9.31,-3.91,40.58,1.09,8.73,1.79
287143,4.98,-7.73,41.74,1.10,8.73,1.99
287177,0.81,-8.90,42.77,1.08,8.73,2.02
287213,-2.40,-8.10,40.73,1.06,8.73,1.97
287247,-4.49,-4.54,38.02,1.08,8.73,1.96
287281,-5.67,-5.63,34.03,0.98,8.73,1.96
287315,-5.14,-4.88,30.39,0.93,8.73,2.02
287350,-1.85,-6.30,26.25,0.95,8.73,1.98
287385,-0.31,-2.89,24.02,0.98,8.73,1.91
287420,2.78,-2.78,22.53,0.98,8.73,1.83
287455,5.07,-2.02,22.83,1.00,8.73,1.77
287489,7.89,-3.62,22.72,1.00,8.73,1.82
287524,11.03,-6.68,24.88,1.08,8.73,1.86
287559,13.11,-5.74,28.33,0.93,8.73,1.86
287594,12.99,-5.31,31.62,0.94,8.73,1.83
287629,12.14,-8.35,36.75,0.88,8.73,1.77
287664,9.70,-8.40,38.40,0.99,8.73,1.60
287699,6.39,-6.24,40.13,1.08,8.73,1.58
287734,3.05,-4.78,42.38,1.26,8.73,1.50
287768,-0.19,-7.56,41.78,1.32,8.73,1.63
287803,-3.26,-8.59,39.27,1.30,8.73,1.79
287839,-4.76,-5.57,36.38,1.20,8.73,1.89
287873,-5.55,-5.30,32.25,1.09,8.73,1.89
287907,-4.94,-3.06,28.69,1.04,8.73,1.92
287942,-3.55,-3.60,24.13,0.98,8.73,1.83
287977,0.01,-1.64,22.64,1.06,8.73,1.73
288012,1.21,-3.09,21.92,1.12,8.73,1.72
288047,6.07,-1.69,22.90,1.19,8.73,1.76
288082,10.55,-4.64,25.50,1.16,8.73,1.85
288117,12.83,-6.86,28.32,1.17,8.73,1.96
288151,13.26,-6.84,32.37,1.12,8.73,2.03
288186,12.63,-7.85,35.66,1.14,8.73,2.02
288221,11.28,-5.74,39.37,1.04,8.73,2.03
288256,8.93,-7.14,41.57,1.02,8.73,2.03
288290,4.23,-9.35,42.90,1.04,8.73,2.10
288325,0.59,-7.44,42.51,1.02,8.73,2.03
288360,-3.18,-5.65,40.69,1.05,8.73,1.99
288394,-5.13,-6.21,37.40,0.98,8.73,1.99
288429,-5.18,-5.61,32.70,0.95,8.73,2.01
288464,-5.74,-5.37,28.93,0.87,8.73,1.97
288499,-5.60,-4.26,25.85,0.99,8.73,1.94
288534,-1.99,-1.81,24.79,0.97,8.73,1.99
288569,1.71,-5.43,23.21,0.92,8.73,2.02
288603,7.08,-6.46,22.96,0.78,8.73,2.18
288637,9.34,-8.12,24.24,0.70,8.73,2.23
288671,11.58,-6.93,27.30,0.62,8.73,2.10
288706,13.44,-6.66,31.33,0.44,8.73,1.99
288741,12.89,-5.71,35.44,0.58,8.73,1.91
288776,12.74,-6.70,39.71,0.66,8.73,1.83
288812,9.88,-7.19,42.39,0.74,8.73,1.73
288851,5.25,-6.45,42.40,0.82,8.73,1.74
288886,1.42,-7.17,41.81,0.71,8.73,1.96
288921,-1.89,-8.18,39.22,0.46,8.73,2.07
288956,-4.26,-5.68,37.40,0.22,8.73,2.02
288990,-4.25,-2.45,33.58,0.00,8.73,1.78
289025,-5.31,1.46,31.01,0.07,8.73,1.52
289060,-4.17,2.55,28.95,0.32,8.73,1.40
289095,-1.32,0.20,25.57,0.67,8.73,1.40
289130,1.15,-2.71,24.16,0.84,8.73,1.57
289165,3.27,-4.27,22.63,0.85,8.73,1.85
289200,8.40,-9.04,23.26,0.69,8.73,2.05
289234,11.81,-7.55,29.03,0.41,8.73,2.02
289269,14.59,-7.63,32.21,0.30,8.73,1.82
289304,14.16,-5.49,36.04,0.33,8.73,1.62
289339,12.64,-6.20,38.65,0.60,8.73,1.54
289374,9.23,-6.67,41.13,0.88,8.73,1.68
289409,6.39,-6.35,41.48,0.96,8.73,1.84
289444,2.35,-6.25,41.03,0.85,8.73,1.97
289479,-2.24,-5.75,42.84,0.82,8.73,2.01
289514,-3.95,-6.84,38.60,0.84,8.73,1.96
289549,-6.94,-4.60,36.30,0.76,8.73,1.96
289583,-3.55,-4.69,32.00,0.82,8.73,1.91
289618,-2.42,-2.67,28.34,0.80,8.73,1.76
289653,-1.16,-0.41,24.91,0.85,8.73,1.70
289687,1.30,-1.47,25.64,0.94,8.73,1.74
289722,3.39,-2.42,23.08,1.04,8.73,1.74
289757,8.78,-3.07,26.81,1.02,8.73,1.94
289791,12.08,-7.28,28.63,1.08,8.73,1.94
289827,14.16,-7.45,31.93,0.95,8.73,1.93
289861,15.79,-7.07,34.57,0.97,8.73,1.86
289895,12.15,-5.18,37.01,0.94,8.73,1.85
289929,10.06,-8.48,39.53,1.01,8.73,1.89
289964,5.95,-8.27,40.76,1.04,8.73,1.91
289999,2.83,-7.07,43.12,1.10,8.73,1.84
290034,-0.61,-6.39,41.85,1.22,8.73,1.79
290068,-4.35,-7.18,41.34,1.12,8.73,1.93
290102,-5.83,-6.28,36.75,1.02,8.73,2.01
290137,-5.49,-4.95,32.89,1.00,8.73,2.02
290172,-2.87,-5.43,29.34,0.96,8.73,1.99
290207,-1.09,-4.70,26.14,1.00,8.73,1.98
290242,0.61,-3.47,23.91,1.01,8.73,2.01
290277,3.98,-3.85,24.14,0.99,8.73,2.04
290311,7.95,-3.36,24.95,1.01,8.73,1.99
290347,11.27,-5.61,27.06,0.97,8.73,1.98
290381,13.93,-7.03,28.22,0.92,8.73,2.01
290416,12.84,-6.21,31.83,0.96,8.73,1.98
290451,12.73,-9.10,36.10,0.92,8.73,1.87
290486,9.49,-4.44,39.14,0.88,8.73,1.76
290521,6.72,-6.31,41.17,0.93,8.73,1.77
290556,3.33,-7.58,42.61,1.09,8.73,1.82
290591,-0.42,-8.32,43.02,1.11,8.73,1.87
290626,-3.70,-7.32,41.09,1.06,8.73,1.98
290661,-5.77,-6.35,37.10,0.98,8.73,2.00
290696,-6.13,-3.87,33.24,0.88,8.73,1.93
290731,-5.29,-2.36,29.86,0.89,8.73,1.86
290766,-2.09,-0.12,26.72,0.86,8.73,1.77
290801,1.86,-2.83,24.08,0.95,8.73,1.76
290836,4.18,-3.30,23.81,0.99,8.73,1.80
290876,8.49,-3.52,24.84,1.05,8.73,1.84
290911,11.00,-4.57,26.12,0.95,8.73,1.91
290946,12.90,-6.59,29.64,0.85,8.73,1.93
290981,13.03,-5.80,33.77,0.77,8.73,1.89
291016,13.32,-8.48,37.62,0.77,8.73,1.79
291051,9.66,-7.35,39.59,0.88,8.73,1.72
291086,6.74,-7.05,43.89,1.00,8.73,1.75
291121,3.64,-6.78,41.04,1.03,8.73,1.87
291156,-0.12,-7.19,41.60,1.01,8.73,1.97
291191,-3.66,-4.58,40.91,0.96,8.73,2.01
291225,-4.71,-4.68,36.90,0.88,8.73,1.96
291259,-7.12,-3.58,32.96,0.91,8.73,1.92
291294,-5.03,-4.38,28.39,0.99,8.73,1.88
291329,-4.23,-3.68,24.78,1.08,8.73,1.92
291364,0.82,-3.11,24.33,1.08,8.73,1.94
291399,1.94,-3.54,23.25,1.06,8.73,1.90
291434,8.17,-3.70,25.59,1.03,8.73,1.98
291469,12.13,-5.06,27.65,1.00,8.73,1.99
291504,13.03,-7.88,31.28,0.97,8.73,1.98
291539,13.87,-8.53,35.17,0.81,8.73,1.90
291574,12.30,-5.84,38.57,0.80,8.73,1.85
291609,9.74,-8.10,40.93,0.86,8.73,1.81
291644,6.21,-7.72,41.73,0.96,8.73,1.89
291679,2.86,-7.22,42.45,0.93,8.73,2.00
291714,-0.60,-7.69,41.42,0.78,8.73,2.17
291748,-3.75,-6.30,39.12,0.48,8.73,2.21
291782,-4.15,-4.18,34.77,0.35,8.73,2.10
291818,-6.21,-2.56,32.60,0.48,8.73,1.96
291852,-4.21,-1.90,28.84,0.69,8.73,1.91
291887,-5.38,-1.45,25.09,0.79,8.73,2.00
291922,-2.68,-3.63,23.51,0.79,8.73,2.12
291957,1.56,-5.04,23.73,0.72,8.73,2.21
291992,7.41,-6.88,24.25,0.60,8.73,2.19
292027,11.68,-7.62,26.60,0.56,8.73,2.06
292062,13.74,-7.41,30.93,0.52,8.73,1.89
292097,14.18,-6.79,34.64,0.52,8.73,1.69
292132,13.10,-6.26,37.76,0.55,8.73,1.47
292167,9.79,-4.43,40.59,0.69,8.73,1.26
292202,6.53,-4.44,43.03,0.95,8.73,1.19
292237,2.96,-5.37,44.78,1.20,8.73,1.30
292272,0.36,-4.88,43.63,1.45,8.73,1.37
292307,-3.59,-5.18,41.96,1.67,8.73,1.52
292341,-5.01,-5.95,36.50,1.87,8.73,1.76
292377,-6.72,-7.68,33.47,1.92,8.73,1.99
292411,-5.04,-7.26,30.68,1.72,8.73,2.15
292447,-3.05,-5.95,26.12,1.56,8.73,2.12
292481,1.01,-0.44,26.21,1.52,8.73,1.77
292516,6.95,1.12,27.44,1.70,8.73,1.60
292551,9.64,-0.13,26.73,1.98,8.73,1.67
292585,11.68,-1.12,28.87,2.14,8.73,1.92
292619,12.81,-5.60,31.44,2.05,8.73,2.24
292654,14.11,-9.01,34.09,1.86,8.73,2.52
292689,12.88,-11.14,37.71,1.53,8.73,2.61
292724,9.33,-10.63,40.53,1.19,8.73,2.44
292759,5.28,-9.81,40.99,1.06,8.73,2.20
292794,2.70,-8.59,42.84,1.05,8.73,2.09
292830,-0.81,-8.48,42.79,1.03,8.73,2.11
292864,-4.17,-7.19,41.08,1.04,8.73,2.12
292904,-5.62,-6.36,37.39,0.92,8.73,2.09
292938,-5.91,-5.11,33.93,0.79,8.73,1.99
292973,-5.66,-4.12,30.60,0.74,8.73,1.87
293008,-2.69,-2.78,27.12,0.82,8.73,1.81
293043,1.99,-4.47,26.02,0.89,8.73,1.88
293078,7.35,-4.62,24.04,0.89,8.73,1.97
293113,11.09,-7.18,26.78,0.82,8.73,2.04
293148,14.12,-9.23,30.33,0.72,8.73,2.02
293183,14.24,-7.35,32.79,0.66,8.73,1.91
293218,13.76,-6.56,35.18,0.70,8.73,1.77
293252,12.24,-4.30,38.68,0.76,8.73,1.77
293287,9.05,-6.97,40.88,0.88,8.73,1.82
293323,6.04,-7.63,42.59,0.93,8.73,1.96
293357,1.92,-10.39,43.77,0.95,8.73,2.20
293392,-1.30,-5.32,40.51,0.94,8.73,2.14
293427,-5.36,-5.18,39.99,0.88,8.73,2.09
293462,-3.50,-4.01,34.88,0.91,8.73,2.05
293497,-4.17,-4.87,30.32,1.09,8.73,2.04
293532,-4.14,-3.33,27.28,1.10,8.73,2.09
293568,-1.55,-5.00,25.76,1.08,8.73,2.09
293603,3.23,-4.80,25.09,1.05,8.73,2.00
293637,7.21,-4.20,24.76,1.06,8.73,1.98
293672,10.05,-4.46,24.33,1.19,8.73,1.91
293707,11.63,-4.58,27.20,1.34,8.73,1.95
293742,12.95,-6.56,31.63,1.32,8.73,2.06
293777,12.60,-8.37,35.84,1.23,8.73,2.13
293812,12.44,-8.51,40.34,1.16,8.73,2.18
293848,9.53,-7.06,43.08,1.09,8.73,2.22
293882,5.61,-8.19,43.84,0.99,8.73,2.30
293917,1.31,-7.95,43.93,0.97,8.73,2.27
293952,-1.29,-7.69,40.90,0.96,8.73,2.20
293987,-4.50,-7.19,38.43,1.04,8.73,2.13
294022,-4.64,-6.42,34.21,1.16,8.73,2.16
294057,-5.19,-7.59,30.47,1.17,8.73,2.18
294092,-3.83,-5.26,26.31,1.17,8.73,2.25
294127,-0.20,-5.16,24.15,1.06,8.73,2.28
294162,3.02,-6.26,22.67,0.96,8.73,2.31
294197,6.03,-5.69,23.20,0.88,8.73,2.29
294232,9.86,-6.37,23.57,0.84,8.73,2.26
294267,10.31,-6.35,25.92,0.99,8.73,2.18
294302,12.24,-8.38,31.00,0.99,8.73,2.13
294337,13.73,-5.01,36.37,1.02,8.73,2.17
294373,12.75,-8.60,39.68,1.16,8.73,2.40
294407,9.13,-8.63,43.62,1.06,8.73,2.43
294442,5.37,-8.07,44.77,0.87,8.73,2.42
294477,1.22,-7.25,44.11,0.71,8.73,2.32
294513,-2.07,-6.13,41.70,0.68,8.73,2.19
294547,-4.11,-6.51,37.92,0.65,8.73,2.09
294582,-4.55,-5.64,33.93,0.67,8.73,2.01
294616,-4.93,-5.57,30.43,0.68,8.73,1.90
294651,-5.62,-3.14,27.36,0.80,8.73,1.86
294686,-1.67,-2.62,26.85,0.92,8.73,1.85
294721,4.12,-3.62,23.75,0.97,8.73,1.86
294756,7.30,-3.72,23.78,1.04,8.73,1.91
294791,9.97,-2.57,26.30,1.13,8.73,1.96
294827,12.77,-4.06,29.30,1.20,8.73,1.96
294861,12.99,-4.83,33.25,1.34,8.73,2.02
294896,13.70,-6.58,36.54,1.42,8.73,2.15
294936,10.42,-8.55,39.87,1.40,8.73,2.39
294971,8.37,-8.96,41.92,1.26,8.73,2.44
295006,4.34,-8.91,43.62,1.14,8.73,2.32
295041,0.26,-8.34,43.18,1.16,8.73,2.24
295076,-3.85,-7.97,41.79,1.21,8.73,2.15
295111,-5.40,-8.62,37.34,1.34,8.73,2.18
295146,-5.46,-8.73,32.56,1.34,8.73,2.25
295181,-4.01,-7.66,28.78,1.25,8.73,2.29
295216,-3.79,-5.04,24.98,1.09,8.73,2.37
295251,-1.27,-6.18,22.97,0.93,8.73,2.29
295286,-0.04,-6.68,22.96,0.83,8.73,2.14
295322,7.58,-5.02,25.06,0.81,8.73,2.09
295356,9.59,-5.41,26.20,0.88,8.73,2.01
295392,13.81,-7.27,29.37,0.90,8.73,1.97
295426,14.47,-7.50,32.91,0.79,8.73,1.90
295461,13.46,-6.66,35.90,0.77,8.73,1.80
295496,11.27,-4.87,38.79,0.79,8.73,1.73
295531,8.72,-6.65,41.22,0.91,8.73,1.75
295566,4.26,-8.40,42.40,1.03,8.73,1.93
295601,0.21,-8.37,42.17,1.01,8.73,2.08
295636,-3.49,-5.05,42.16,1.10,8.73,2.01
295671,-4.61,-5.45,37.67,1.02,8.73,2.00
295706,-5.69,-5.11,32.44,1.05,8.73,2.03
295741,-6.89,-4.29,29.97,1.07,8.73,2.10
295776,-6.52,-7.23,26.13,1.13,8.73,2.11
295811,-0.02,-4.38,23.76,1.05,8.73,2.15
295847,4.61,-5.45,23.28,0.94,8.73,2.23
295881,8.25,-5.62,23.79,0.88,8.73,2.21
295916,9.78,-4.14,24.87,0.81,8.73,2.15
295951,11.67,-6.43,27.60,0.77,8.73,2.09
295986,12.89,-6.98,31.40,0.79,8.73,2.03
296021,13.17,-7.25,34.79,0.82,8.73,1.95
296056,12.63,-6.44,38.35,0.89,8.73,1.95
296091,9.38,-5.45,40.53,0.88,8.73,1.88
296126,5.29,-6.81,40.68,0.90,8.73,1.79
296161,1.46,-7.15,41.31,0.93,8.73,1.80
296196,-1.23,-3.50,38.18,1.08,8.73,1.71
296231,-3.68,-5.10,35.83,1.10,8.73,1.72
296266,-6.17,-5.74,34.44,1.13,8.73,1.89
296301,-6.42,-6.05,30.39,1.10,8.73,1.94
296337,-4.45,-2.63,28.81,1.10,8.73,1.86
296372,0.87,-0.20,24.20,1.00,8.73,1.79
296406,3.88,-2.37,21.19,1.10,8.73,1.79
296441,6.16,-4.32,21.40,1.13,8.73,1.87
296476,7.64,-5.34,20.64,1.19,8.73,1.90
296511,10.45,-1.38,24.69,1.16,8.73,1.93
296546,12.55,-4.56,26.92,1.15,8.73,1.96
296581,12.94,-7.99,30.65,1.14,8.73,2.06
296616,11.77,-9.08,33.94,1.11,8.73,2.01
296651,10.16,-4.08,39.32,1.08,8.73,2.12
296686,6.52,-7.90,40.04,1.01,8.73,2.12
296721,3.25,-8.29,41.17,0.93,8.73,2.07
296756,-0.04,-8.70,40.87,0.90,8.73,2.09
296791,-3.25,-5.08,39.91,0.94,8.73,2.04
296827,-3.71,-4.80,35.21,0.92,8.73,1.99
296861,-5.46,-4.44,30.98,1.02,8.73,2.04
296896,-4.92,-7.24,27.41,1.08,8.73,2.05
296931,-3.84,-3.23,23.86,1.14,8.73,2.16
296971,0.06,-6.10,20.59,1.06,8.73,2.20
297006,2.84,-4.75,19.73,0.98,8.73,2.12
297041,6.68,-1.74,20.89,0.93,8.73,2.04
297076,9.76,-7.22,22.59,0.90,8.73,2.02
297111,10.88,-3.72,24.69,0.97,8.73,2.00
297146,11.96,-5.81,28.12,0.94,8.73,1.96
297181,12.90,-6.72,32.98,0.90,8.73,2.01
297216,12.53,-8.37,36.68,1.07,8.73,2.07
297251,9.71,-5.83,40.64,0.97,8.73,2.04
297286,5.69,-7.38,41.32,0.95,8.73,2.01
297321,1.72,-9.58,40.27,0.86,8.73,2.07
297356,-1.19,-5.45,37.91,0.86,8.73,2.03
297392,-3.98,-5.55,35.86,0.73,8.73,1.96
297426,-4.37,-4.25,32.11,0.83,8.73,1.95
297461,-5.96,-4.77,28.64,0.88,8.73,1.83
297496,-4.77,-0.38,25.90,0.92,8.73,1.82
297531,-3.12,-2.81,22.24,0.83,8.73,1.77
297566,0.72,-2.23,21.47,0.98,8.73,1.72
297601,5.54,-1.11,20.94,1.10,8.73,1.54
297636,7.92,-0.11,21.23,1.23,8.73,1.54
297671,9.83,-4.29,22.64,1.29,8.73,1.67
297707,11.45,-5.38,25.44,1.27,8.73,1.80
297741,12.86,-6.09,29.58,1.15,8.73,1.85
297776,12.50,-8.23,33.34,1.09,8.73,1.88
297811,10.94,-7.72,37.29,1.20,8.73,1.89
297847,8.84,-5.60,40.01,1.14,8.73,1.89
297881,4.25,-7.78,39.92,1.16,8.73,1.94
297916,0.34,-7.84,39.79,1.22,8.73,1.89
297951,-1.79,-2.49,37.84,1.29,8.73,1.85
297986,-5.14,-8.21,33.67,1.39,8.73,1.90
298021,-6.11,-7.16,30.46,1.46,8.73,2.06
298056,-8.31,-5.96,28.80,1.37,8.73,2.16
298091,-3.42,-7.89,24.24,1.15,8.73,2.28
298126,-0.22,-6.17,21.00,1.09,8.73,2.32
298161,3.39,-4.30,20.80,0.90,8.73,2.26
298196,5.30,-6.25,20.63,0.75,8.73,2.30
298231,7.71,-7.77,20.85,0.62,8.73,2.31
298266,9.66,-4.31,24.02,0.59,8.73,2.19
298302,12.27,-5.82,27.02,0.58,8.73,2.10
298336,13.78,-5.95,30.91,0.70,8.73,2.04
298372,13.45,-5.64,35.38,0.83,8.73,2.03
298406,10.50,-5.53,37.82,0.81,8.73,2.09
298441,6.30,-8.08,38.47,0.84,8.73,2.17
298476,3.66,-7.70,38.94,0.74,8.73,2.19
298511,0.06,-3.97,39.40,0.68,8.73,2.07
298546,-3.38,-7.73,37.25,0.66,8.73,1.94
298581,-5.10,-4.10,36.14,0.83,8.73,1.86
298616,-5.75,-4.24,32.45,0.89,8.73,1.79
298651,-8.19,-4.72,28.29,0.93,8.73,1.82
298686,-5.04,-0.93,24.84,1.06,8.73,1.79
298722,-2.08,-1.71,21.37,0.95,8.73,1.63
298756,2.97,-2.45,19.84,1.06,8.73,1.58
298791,7.44,-2.63,20.52,1.19,8.73,1.50
298826,9.62,-1.29,23.02,1.25,8.73,1.59
298861,10.99,-5.71,23.29,1.22,8.73,1.73
298896,12.83,-5.89,26.53,1.10,8.73,1.84
298931,13.22,-6.01,30.34,1.02,8.73,1.87
298966,11.61,-8.73,33.15,0.99,8.73,1.84
299006,9.50,-8.63,36.40,0.97,8.73,1.76
299041,6.57,-6.13,37.96,0.98,8.73,1.69
299077,3.08,-5.65,39.13,0.99,8.73,1.69
299111,-0.58,-7.87,37.62,1.00,8.73,1.75
299147,-3.30,-4.35,37.80,1.02,8.73,1.79
299181,-6.02,-8.31,35.42,0.89,8.73,1.96
299216,-5.72,-5.29,31.62,0.87,8.73,1.95
299251,-5.13,-3.06,27.83,0.78,8.73,1.90
299286,-5.51,-4.63,23.08,0.82,8.73,1.82
299322,-0.62,-0.41,21.71,0.91,8.73,1.82
299356,2.98,-2.97,21.05,0.92,8.73,1.79
299392,6.08,-2.92,19.69,0.91,8.73,1.82
299426,9.13,-4.42,20.06,0.91,8.73,1.79
299461,11.30,-2.99,23.57,0.87,8.73,1.77
299496,12.77,-5.34,26.34,0.92,8.73,1.77
299531,13.39,-5.38,29.41,0.90,8.73,1.70
299566,11.59,-4.67,33.24,0.94,8.73,1.78
299601,9.36,-7.01,36.52,1.10,8.73,1.78
299636,6.61,-5.38,38.38,1.05,8.73,1.75
299671,3.62,-6.00,39.09,1.04,8.73,1.86
299706,0.21,-6.59,38.15,1.12,8.73,1.85
299741,-3.42,-5.71,37.69,1.12,8.73,1.87
299776,-5.70,-6.47,34.98,1.24,8.73,1.97
299811,-5.32,-5.68,30.33,1.27,8.73,2.04
299847,-5.59,-5.55,26.15,1.16,8.73,2.14
299881,-5.39,-5.59,22.57,1.16,8.73,2.22
299916,-2.25,-4.62,19.96,0.97,8.73,2.23
299951,1.69,-6.81,18.30,0.88,8.73,2.24
299986,6.28,-6.85,19.01,0.77,8.73,2.19
300021,8.89,-4.24,20.20,0.62,8.73,2.18
300056,10.65,-7.43,23.63,0.50,8.73,2.13
300091,13.32,-5.44,26.68,0.45,8.73,2.01
300126,12.15,-5.79,29.62,0.54,8.73,1.86
300161,11.25,-5.93,33.66,0.62,8.73,1.76
300196,9.91,-3.80,37.79,0.75,8.73,1.71
300231,7.03,-6.42,39.01,0.79,8.73,1.72
300266,3.43,-6.12,40.02,0.92,8.73,1.69
300301,-0.41,-6.13,39.65,0.98,8.73,1.61
300337,-2.87,-3.62,37.52,1.02,8.73,1.62
300372,-5.43,-5.22,33.68,1.17,8.73,1.66
300406,-6.93,-4.93,30.29,1.19,8.73,1.71
300441,-6.65,-1.93,27.09,1.15,8.73,1.74
300476,-5.50,-4.03,23.34,1.11,8.73,1.74
300511,-0.90,0.15,21.74,1.11,8.73,1.64
300546,1.99,-1.47,20.34,1.15,8.73,1.62
300581,6.08,-2.09,20.92,1.23,8.73,1.65
300616,9.30,-0.67,20.47,1.33,8.73,1.75
300651,11.23,-5.01,23.76,1.31,8.73,1.91
300686,12.12,-5.52,27.83,1.27,8.73,2.05
300721,13.43,-6.06,30.25,1.16,8.73,2.09
300756,12.59,-8.72,33.67,1.03,8.73,2.17
300792,9.47,-8.02,36.09,1.04,8.73,2.14
300827,6.31,-6.74,38.32,0.90,8.73,2.09
300861,3.46,-6.96,38.57,0.81,8.73,2.12
300896,-0.35,-7.02,37.66,0.79,8.73,2.05
300931,-3.25,-5.22,36.16,0.71,8.73,1.99
300966,-5.30,-4.73,33.73,0.84,8.73,1.91
301001,-6.96,-5.05,30.93,0.87,8.73,1.85
301041,-6.66,-4.27,26.81,0.98,8.73,1.84
301076,-3.91,-2.98,22.85,0.97,8.73,1.88
301111,-3.68,-4.24,21.80,1.00,8.73,1.87
301145,1.77,-4.68,19.07,0.96,8.73,1.86
301180,5.97,-2.64,19.93,0.94,8.73,1.94
301215,7.31,-2.69,21.82,1.02,8.73,1.89
301250,10.97,-4.31,24.48,0.98,8.73,1.91
301285,13.52,-4.35,28.85,1.06,8.73,2.00
301321,13.32,-7.85,32.11,1.17,8.73,2.05
301355,13.00,-6.45,35.41,1.12,8.73,2.07
301390,8.62,-8.46,36.15,0.96,8.73,2.03
301425,6.13,-7.62,36.95,0.98,8.73,2.05
301460,2.68,-7.41,39.35,0.92,8.73,2.02
301495,-0.33,-8.35,38.67,0.80,8.73,2.07
301530,-4.05,-7.38,37.49,0.84,8.73,2.02
301565,-4.98,-4.14,34.08,0.72,8.73,1.95
301600,-6.01,-4.55,30.55,0.72,8.73,1.90
301635,-5.30,-4.38,27.11,0.77,8.73,1.79
301670,-5.03,0.00,24.27,0.83,8.73,1.76
301705,-2.79,-3.03,21.73,0.94,8.73,1.76
301740,2.00,-3.13,22.09,1.02,8.73,1.75
301775,6.09,-3.29,20.47,1.07,8.73,1.73
301810,9.87,-3.06,21.44,1.15,8.73,1.74
301846,12.02,-3.95,25.31,1.30,8.73,1.80
301880,13.00,-4.84,27.86,1.29,8.73,1.86
301915,13.93,-6.70,31.22,1.24,8.73,1.96
301950,11.74,-9.11,34.06,1.26,8.73,1.98
301985,9.51,-5.66,37.25,1.09,8.73,1.94
302020,5.52,-8.48,37.68,1.09,8.73,1.91
302055,2.72,-7.65,38.04,1.17,8.73,1.79
302090,0.28,-5.44,37.66,1.20,8.73,1.80
302125,-4.42,-8.40,37.30,1.25,8.73,1.84
302160,-4.53,-4.46,33.34,1.17,8.73,1.91
302195,-8.87,-7.24,30.40,1.09,8.73,1.95
302230,-6.12,-6.31,27.43,0.96,8.73,1.98
302265,-5.24,-3.10,23.48,1.04,8.73,1.98
302300,-1.88,-2.32,22.07,0.91,8.73,1.83
302334,1.89,-4.56,21.23,0.96,8.73,1.89
302369,6.09,-3.91,21.04,1.00,8.73,1.89
302404,9.61,-2.82,21.87,1.02,8.73,1.87
302439,12.22,-6.01,24.26,1.14,8.73,1.88
302474,17.99,-7.36,25.35,1.09,8.73,1.92
302509,4.14,-7.72,34.21,1.11,8.73,1.95
302544,15.46,-10.09,41.14,1.13,8.73,2.04
302579,8.77,-5.21,37.39,1.05,8.73,1.95
302614,4.22,-6.27,35.85,0.97,8.73,2.04
302649,3.20,-7.52,40.04,0.87,8.73,2.11
302685,0.23,-6.46,38.48,0.82,8.73,2.10
302719,-4.04,-8.02,39.35,0.71,8.73,2.05
302754,-9.52,-5.82,38.90,0.71,8.73,1.98
302789,-7.72,-3.59,30.20,0.66,8.73,1.82
302825,-5.04,-0.65,28.16,0.64,8.73,1.80
302859,0.06,-4.10,20.97,0.75,8.73,1.68
302893,2.42,-0.76,21.12,0.78,8.73,1.62
302927,4.15,-1.61,22.20,0.84,8.73,1.63
302962,7.92,-2.82,20.94,0.96,8.73,1.64
302997,9.99,-1.81,23.58,1.05,8.73,1.67
303032,12.42,-4.74,23.82,1.00,8.73,1.72
303072,13.94,-4.74,28.17,1.02,8.73,1.74
303107,12.95,-5.27,31.89,0.97,8.73,1.78
303142,10.90,-8.93,33.81,1.05,8.73,1.78
303177,9.26,-5.61,39.16,1.08,8.73,1.79
303212,5.66,-6.85,39.53,1.15,8.73,1.82
303247,1.56,-8.77,38.56,1.23,8.73,1.95
303282,-1.70,-4.27,38.96,1.31,8.73,1.95
303318,-3.92,-7.52,35.41,1.40,8.73,1.98
303352,-3.88,-6.87,30.51,1.59,8.73,2.12
303388,-6.05,-7.79,26.68,1.61,8.73,2.27
303423,-4.41,-8.16,23.68,1.41,8.73,2.47
303457,-3.74,-8.98,20.90,1.25,8.73,2.50
303492,0.35,-4.66,20.43,0.98,8.73,2.37
303527,2.61,-4.20,19.85,0.86,8.73,2.16
303562,5.64,-3.23,19.18,0.90,8.73,1.96
303597,9.27,-2.02,21.13,0.91,8.73,1.92
303632,11.39,-5.97,24.37,0.94,8.73,1.95
303667,12.87,-6.14,28.63,0.88,8.73,1.91
303703,12.31,-4.21,32.78,0.80,8.73,1.87
303738,12.50,-8.35,35.42,0.80,8.73,1.80
303772,9.33,-4.54,37.93,0.86,8.73,1.73
303807,5.51,-5.90,39.67,0.90,8.73,1.71
303843,1.87,-7.43,39.81,0.91,8.73,1.81
303877,-1.47,-3.74,40.18,0.99,8.73,1.80
303912,-4.31,-6.10,35.96,0.94,8.73,1.81
303947,-5.33,-3.61,31.87,1.06,8.73,1.89
303982,-2.74,-4.13,26.76,1.21,8.73,1.88
304017,-2.93,-2.80,23.24,1.21,8.73,2.02
304052,-2.01,-8.11,19.77,1.28,8.73,2.31
304087,0.13,-8.90,19.26,1.19,8.73,2.49
304123,3.40,-6.74,19.83,1.01,8.73,2.50
304157,6.86,-5.68,20.76,0.96,8.73,2.42
304192,10.34,-4.21,23.27,0.99,8.73,2.28
304227,13.13,-5.81,24.63,1.07,8.73,2.26
304262,13.30,-6.42,28.89,1.11,8.73,2.33
304297,13.10,-5.82,31.42,1.08,8.73,2.40
304333,11.53,-9.90,34.84,0.90,8.73,2.50
304367,7.72,-7.17,34.95,0.83,8.73,2.51
304402,4.59,-8.37,38.70,0.64,8.73,2.32
304437,1.73,-7.64,39.70,0.56,8.73,2.18
304472,-1.42,-5.35,36.91,0.75,8.73,1.90
304507,-3.21,-5.42,34.14,0.78,8.73,1.77
304543,-4.65,-4.79,30.45,0.94,8.73,1.78
304577,-5.58,-5.04,27.82,0.98,8.73,1.67
304613,-6.19,-2.41,25.38,0.92,8.73,1.61
304647,-6.99,-2.12,21.70,1.03,8.73,1.52
304682,-1.16,0.71,21.16,1.21,8.73,1.39
304718,3.89,0.73,23.40,1.43,8.73,1.38
304752,7.49,2.52,22.67,1.70,8.73,1.50
304787,10.18,-0.23,22.21,2.17,8.73,1.62
304822,12.40,-3.92,26.86,2.37,8.73,1.98
304857,15.18,-4.49,30.24,2.44,8.73,2.38
304892,13.13,-7.01,32.95,2.39,8.73,3.09
304927,10.21,-16.03,35.68,1.89,8.73,3.41
304962,8.37,-12.04,41.40,1.39,8.73,3.39
304997,4.84,-12.32,42.43,0.83,8.73,2.94
305032,0.01,-12.34,42.27,0.71,8.73,2.74
305067,-4.42,-9.06,41.88,0.74,8.73,2.45
305107,-3.54,-8.56,35.61,0.69,8.73,2.26
305142,-7.13,-6.53,31.82,0.65,8.73,2.14
305177,-6.04,-6.36,29.09,0.79,8.73,2.07
305212,-0.57,-4.30,25.16,0.76,8.73,1.93
305247,3.59,-5.41,21.72,0.83,8.73,1.82
305282,5.48,-4.59,21.97,0.90,8.73,1.71
305318,7.77,-1.64,20.31,1.11,8.73,1.64
305352,9.24,-0.50,23.50,1.53,8.73,1.62
305387,12.62,-3.35,26.61,1.77,8.73,1.75
305422,13.73,-5.41,29.13,1.98,8.73,2.07
305457,12.54,-8.51,34.05,1.90,8.73,2.48
305492,11.64,-13.63,36.96,1.70,8.73,2.75
305527,8.36,-13.60,39.51,1.42,8.73,2.90
305562,3.96,-12.87,41.85,0.98,8.73,2.94
305597,0.69,-11.11,41.78,0.63,8.73,2.90
305632,-5.22,-9.32,44.04,0.46,8.73,2.60
305667,-4.28,-8.10,39.01,0.41,8.73,2.40
305702,-5.25,-5.36,34.01,0.31,8.73,2.07
305737,-2.89,-1.91,29.67,0.42,8.73,1.85
305772,-2.61,-1.53,25.39,0.49,8.73,1.55
305807,-0.49,0.40,24.67,0.71,8.73,1.29
305843,3.40,-1.92,22.95,0.93,8.73,1.34
305877,6.57,-0.07,21.74,1.21,8.73,1.33
305912,10.33,-3.36,25.67,1.51,8.73,1.45
305947,13.55,-4.10,30.47,1.70,8.73,1.69
305982,14.74,-7.13,33.16,1.79,8.73,1.98
306017,13.62,-10.71,35.62,1.74,8.73,2.29
306052,9.95,-11.35,37.20,1.53,8.73,2.47
306087,5.65,-10.14,38.89,1.24,8.73,2.55
306122,3.52,-11.79,41.88,1.12,8.73,2.64
306157,-0.06,-10.41,42.27,0.86,8.73,2.57
306192,-4.47,-12.04,40.20,0.62,8.73,2.55
306228,-3.62,-7.47,33.25,0.45,8.73,2.39
306262,-5.81,-6.93,29.79,0.35,8.73,2.11
306297,-6.35,-2.67,27.83,0.31,8.73,1.82
306333,-3.52,-1.20,24.43,0.31,8.73,1.59
306367,-3.05,-2.24,22.03,0.54,8.73,1.43
306402,0.44,-1.82,21.76,0.73,8.73,1.36
306437,6.51,-1.46,23.00,0.98,8.73,1.36
306472,11.71,-0.96,23.97,1.16,8.73,1.40
306507,14.05,-4.35,27.14,1.33,8.73,1.49
306542,13.72,-5.78,30.17,1.45,8.73,1.66
306577,12.70,-7.67,33.02,1.55,8.73,1.83
306612,11.00,-8.21,36.63,1.48,8.73,2.02
306647,8.71,-9.23,38.24,1.38,8.73,2.11
306682,5.17,-10.54,41.67,1.28,8.73,2.20
306717,0.72,-10.12,40.13,1.17,8.73,2.23
306752,-1.71,-8.68,37.71,1.02,8.73,2.31
306787,-5.32,-8.61,34.49,0.88,8.73,2.30
306822,-4.30,-7.13,30.45,0.70,8.73,2.26
306857,-5.34,-5.69,26.98,0.65,8.73,2.16
306892,-4.41,-5.53,24.30,0.68,8.73,2.13
306927,-2.94,-4.34,21.03,0.70,8.73,2.16
306962,1.51,-7.00,20.24,0.66,8.73,2.20
306997,4.99,-6.42,19.75,0.56,8.73,2.17
307032,9.00,-4.17,20.94,0.59,8.73,1.96
307067,9.96,-4.99,21.50,0.65,8.73,1.82
307102,11.45,-4.10,25.96,0.83,8.73,1.75
307142,13.13,-6.62,29.97,0.93,8.73,1.73
307177,12.56,-4.86,33.42,1.00,8.73,1.72
307212,9.79,-7.79,35.92,0.94,8.73,1.76
307247,7.77,-7.47,38.76,1.08,8.73,1.77
307282,3.75,-7.46,39.48,1.09,8.73,1.82
307318,0.22,-7.76,40.81,1.08,8.73,1.93
307352,-3.16,-7.40,38.50,1.08,8.73,1.99
307387,-5.48,-5.43,35.11,0.91,8.73,1.97
307422,-5.61,-5.33,30.68,0.92,8.73,2.00
307457,-6.85,-6.52,26.51,0.89,8.73,1.91
307492,-5.12,-1.06,24.89,0.85,8.73,1.90
307527,-4.19,-4.37,21.92,0.88,8.73,1.94
307562,1.55,-3.72,20.73,0.92,8.73,1.90
307597,5.50,-2.85,20.96,0.92,8.73,1.88
307632,8.76,-3.54,21.53,0.93,8.73,1.90
307667,11.41,-5.04,24.28,1.03,8.73,1.90
307702,13.61,-4.67,27.20,1.00,8.73,1.88
307737,12.80,-6.68,30.77,1.08,8.73,1.96
307772,12.17,-8.55,34.21,1.08,8.73,1.89
307807,10.49,-4.69,37.37,1.02,8.73,1.89
307843,6.20,-7.42,38.26,0.99,8.73,1.86
307877,3.79,-8.06,39.75,1.02,8.73,1.90
307912,0.06,-5.55,40.16,1.07,8.73,1.90
307947,-3.18,-7.07,36.95,0.98,8.73,1.93
307982,-6.04,-5.78,34.77,1.08,8.73,1.96
308017,-3.59,-5.49,29.64,1.13,8.73,1.90
308052,-10.06,-2.81,28.43,1.05,8.73,1.98
308087,-7.67,-6.58,25.08,1.02,8.73,1.98
308122,-1.59,-2.70,23.04,0.97,8.73,2.03
308157,1.30,-4.26,19.34,0.93,8.73,2.02
308192,5.20,-6.44,20.88,0.94,8.73,2.02
308227,9.23,-3.93,21.91,0.97,8.73,1.99
308262,12.36,-4.71,26.05,0.87,8.73,1.99
308297,13.80,-6.93,28.55,0.97,8.73,2.01
308333,13.87,-7.52,30.97,0.96,8.73,1.94
308367,12.51,-4.49,34.99,0.95,8.73,1.96
308402,8.65,-8.64,36.43,0.93,8.73,1.97
308437,6.35,-6.82,38.43,0.95,8.73,1.97
308472,2.76,-6.31,40.27,0.92,8.73,1.95
308507,0.08,-7.71,38.28,0.84,8.73,1.94
308542,-3.88,-5.90,37.29,0.96,8.73,1.88
308577,-6.56,-4.30,35.38,0.87,8.73,1.81
308612,-6.43,-4.35,31.30,0.90,8.73,1.83
308647,-4.31,-4.05,26.95,0.92,8.73,1.70
308682,-5.06,-0.54,24.07,0.88,8.73,1.64
308717,-2.42,-2.82,22.24,1.00,8.73,1.59
308752,2.29,-2.35,21.12,1.10,8.73,1.62
308787,6.35,-2.39,20.35,1.16,8.73,1.68
308822,8.88,-3.89,20.63,1.15,8.73,1.79
308857,10.95,-5.01,24.35,1.17,8.73,1.88
308892,13.64,-6.35,26.90,1.05,8.73,1.89
308927,13.39,-6.71,30.80,0.95,8.73,1.95
308962,12.49,-7.11,33.39,0.99,8.73,1.94
308997,8.65,-6.89,35.35,0.88,8.73,1.95
309032,6.20,-8.01,36.31,0.86,8.73,2.01
309067,3.05,-6.46,37.14,0.75,8.73,2.03
309102,-0.78,-9.37,38.16,0.72,8.73,2.07
309137,-3.69,-5.30,37.50,0.68,8.73,1.98
309177,-5.49,-4.23,33.77,0.62,8.73,1.91
309212,-5.74,-3.88,29.45,0.59,8.73,1.79
309247,-7.31,-3.33,26.31,0.70,8.73,1.71
309282,-5.19,-1.37,23.67,0.81,8.73,1.70
309318,-1.14,-4.37,21.18,0.92,8.73,1.71
309352,1.62,-3.55,19.44,0.96,8.73,1.78
309387,5.37,-3.27,20.24,1.04,8.73,1.75
309422,10.64,-3.37,20.88,1.15,8.73,1.72
309457,11.64,-1.05,22.97,1.40,8.73,1.69
309492,14.41,-1.65,23.27,1.61,8.73,1.82
309527,10.03,-4.56,27.22,1.79,8.73,2.09
309562,12.25,-10.64,31.43,1.68,8.73,2.34
309597,9.87,-9.43,35.03,1.40,8.73,2.31
309632,6.95,-9.32,38.49,1.23,8.73,2.23
309667,2.60,-8.54,39.65,1.10,8.73,2.17
309702,0.05,-8.51,38.61,1.03,8.73,2.13
309737,-3.57,-8.35,36.88,0.99,8.73,2.16
309772,-3.74,-6.98,32.99,0.88,8.73,2.16
309807,-5.35,-6.00,29.06,0.76,8.73,2.12
309843,-5.34,-5.31,26.94,0.76,8.73,2.03
309877,-4.58,-2.31,23.57,0.73,8.73,2.03
309912,-1.40,-6.35,20.29,0.84,8.73,2.12
309947,3.65,-6.49,18.56,0.80,8.73,2.20
309982,7.00,-5.91,18.06,0.67,8.73,2.27
310017,8.34,-8.02,19.09,0.55,8.73,2.23
310052,11.47,-2.97,23.26,0.60,8.73,2.04
310087,13.07,-3.61,26.15,0.86,8.73,1.97
310122,12.48,-4.26,29.23,1.06,8.73,1.98
310157,10.73,-7.02,32.50,1.14,8.73,2.15
310192,9.37,-7.70,34.99,1.16,8.73,2.22
310227,6.14,-8.45,38.64,1.02,8.73,2.21
310262,3.46,-8.36,39.85,0.97,8.73,2.14
310297,-0.52,-6.51,39.30,1.08,8.73,1.93
310333,-2.66,-5.74,35.00,1.18,8.73,1.79
310367,-3.88,-5.81,31.30,1.38,8.73,1.79
310402,-7.64,-5.71,29.24,1.37,8.73,1.83
310437,-8.27,-7.54,26.87,1.34,8.73,1.92
310472,-6.32,-2.53,24.27,1.10,8.73,1.77
310507,-1.18,-2.40,22.23,1.12,8.73,1.67
310542,2.62,1.00,19.30,1.26,8.73,1.50
310577,5.67,-0.05,20.85,1.41,8.73,1.56
310612,9.43,-2.16,20.44,1.58,8.73,1.71
310647,9.93,-3.69,22.86,1.64,8.73,1.91
310682,12.43,-3.87,25.52,1.78,8.73,2.10
310717,12.69,-6.78,29.26,1.88,8.73,2.44
310752,12.69,-10.76,33.34,1.73,8.73,2.80
310787,9.57,-11.15,36.53,1.45,8.73,3.02
310822,6.24,-11.15,39.10,1.00,8.73,2.94
310857,4.03,-10.31,42.59,0.67,8.73,2.80
310892,-0.09,-10.13,41.18,0.43,8.73,2.61
310927,-4.90,-10.44,40.03,0.26,8.73,2.37
310962,-5.84,-4.34,37.08,0.03,8.73,2.12
310997,-6.36,-4.06,32.79,0.07,8.73,1.79
311032,-4.60,0.31,29.61,0.22,8.73,1.53
311067,-2.99,-1.49,25.91,0.60,8.73,1.63
311102,-0.10,-3.89,22.93,0.89,8.73,1.87
311137,2.87,-5.55,22.33,0.93,8.73,1.95
311172,6.71,-3.86,22.50,1.01,8.73,1.84
311212,10.11,-3.70,26.07,1.26,8.73,1.80
311247,12.46,-4.95,28.41,1.44,8.73,1.88
311282,14.09,-6.62,30.47,1.54,8.73,2.16
311318,12.56,-10.76,34.70,1.49,8.73,2.41
311352,10.07,-9.84,38.85,1.36,8.73,2.74
311387,6.50,-13.29,42.38,1.11,8.73,2.93
311422,3.23,-12.79,43.45,0.72,8.73,2.99
311457,0.04,-11.55,42.13,0.31,8.73,2.96
311492,-3.99,-7.22,42.03,-0.07,8.73,2.68
311527,-7.32,-5.62,40.61,-0.16,8.73,2.28
311562,-8.84,-1.62,37.52,-0.25,8.73,1.82
311597,-5.79,-0.23,32.66,0.03,8.73,1.47
311632,-3.19,1.75,29.04,0.34,8.73,1.20
311667,3.38,4.78,28.10,0.77,8.73,0.97
311702,7.99,3.30,28.56,1.20,8.73,1.03
311737,10.74,-1.18,28.80,1.46,8.73,1.28
311772,13.10,-4.51,31.33,1.62,8.73,1.51
311807,13.43,-7.43,33.95,1.67,8.73,1.72
311842,13.67,-9.66,37.63,1.61,8.73,1.91
311877,12.41,-9.85,41.66,1.46,8.73,2.01
311912,8.67,-10.38,42.37,1.41,8.73,2.15
311947,3.91,-11.06,41.71,1.31,8.73,2.28
311982,0.77,-10.30,40.50,1.17,8.73,2.34
312017,-3.27,-10.52,37.48,1.03,8.73,2.35
312052,-4.57,-8.18,35.02,0.97,8.73,2.25
312087,-5.66,-8.94,32.15,0.90,8.73,2.21
312122,-7.72,-7.28,29.71,0.78,8.73,2.13
312157,-8.52,-5.17,26.77,0.66,8.73,1.98
312192,-3.08,-2.38,24.57,0.61,8.73,1.72
312227,3.86,-2.17,23.16,0.75,8.73,1.47
312262,7.50,-1.24,23.66,0.96,8.73,1.49
312297,10.55,-2.97,24.39,1.11,8.73,1.54
312333,12.98,-4.25,27.28,1.29,8.73,1.61
312367,13.32,-6.04,30.19,1.29,8.73,1.67
312402,14.24,-5.44,33.53,1.32,8.73,1.78
312437,12.29,-7.43,37.19,1.39,8.73,1.95
312472,7.56,-8.90,39.20,1.38,8.73,2.03
312507,6.04,-9.03,39.54,1.35,8.73,2.09
312542,1.44,-9.05,41.63,1.27,8.73,2.08
312577,-1.14,-7.42,39.10,1.24,8.73,2.08
312612,-3.86,-8.34,37.51,1.34,8.73,2.08
312647,-3.95,-8.65,33.07,1.39,8.73,2.18
312682,-7.18,-9.60,29.47,1.25,8.73,2.22
312717,-5.84,-4.14,27.25,1.00,8.73,2.16
312752,-3.68,-3.88,23.90,0.82,8.73,1.98
312787,1.43,-2.80,23.59,0.87,8.73,1.82
312822,5.72,-2.10,23.82,0.99,8.73,1.69
312857,9.36,-3.00,23.34,1.10,8.73,1.69
312892,10.99,-3.24,25.63,1.12,8.73,1.77
312927,13.81,-6.38,27.91,1.05,8.73,1.89
312962,12.64,-6.54,31.74,1.04,8.73,1.95
312997,13.14,-10.14,35.89,1.13,8.73,1.93
313032,9.75,-4.80,39.09,1.08,8.73,1.87
313067,6.79,-6.82,41.06,1.07,8.73,1.95
313102,3.23,-8.06,42.12,1.17,8.73,1.97
313137,-0.14,-7.32,42.90,1.24,8.73,1.96
313172,-3.43,-8.29,40.45,1.31,8.73,1.97
313207,-4.71,-7.87,36.11,1.37,8.73,2.03
313247,-7.61,-6.90,31.91,1.28,8.73,2.13
313282,-5.36,-6.02,29.49,1.15,8.73,2.16
313318,-2.28,-5.76,24.75,1.04,8.73,2.04
313352,1.09,-3.62,23.38,1.07,8.73,1.86
313387,4.88,-3.00,22.67,1.12,8.73,1.79
313422,6.11,-4.67,22.55,1.19,8.73,1.87
313457,9.82,-4.26,28.63,1.23,8.73,1.95
313492,13.12,-6.59,30.83,1.21,8.73,2.06
313527,12.76,-7.26,35.16,1.10,8.73,2.14
313562,12.62,-7.05,39.33,1.08,8.73,2.24
313633,5.77,-8.68,42.56,0.93,8.73,2.40
313667,2.17,-9.68,43.85,0.77,8.73,2.49
313702,-1.31,-7.45,40.94,0.59,8.73,2.42
313737,-4.28,-5.97,39.44,0.56,8.73,2.23
313772,-4.79,-4.32,35.97,0.65,8.73,2.09
313807,-5.10,-5.17,32.01,0.80,8.73,2.02
313842,-3.66,-3.92,29.03,0.89,8.73,1.98
313877,-1.01,-2.29,25.96,0.95,8.73,2.03
313912,1.11,-2.26,24.24,0.99,8.73,2.06
313947,4.59,-8.19,24.68,0.98,8.73,2.00
313982,10.96,-3.45,27.14,0.95,8.73,2.01
314017,12.90,-3.78,27.45,1.04,8.73,1.97
314052,13.75,-8.20,31.58,1.13,8.73,1.99
314088,13.96,-6.29,35.28,1.07,8.73,2.03
314122,12.35,-8.68,39.24,1.12,8.73,2.15
314157,8.84,-9.27,42.26,1.10,8.73,2.21
314192,6.00,-9.48,42.24,1.07,8.73,2.30
314227,2.05,-9.10,42.58,0.97,8.73,2.36
314262,-0.89,-7.39,39.51,0.87,8.73,2.29
314297,-4.13,-6.47,37.31,0.68,8.73,2.25
314332,-6.45,-5.31,36.12,0.71,8.73,2.18
314367,-7.89,-4.64,31.94,0.70,8.73,2.09
314402,-7.98,-3.69,28.30,0.72,8.73,2.08
314437,-0.33,-5.10,26.44,0.79,8.73,2.06
314473,4.28,-5.41,23.87,0.84,8.73,1.99
314507,8.01,-4.78,24.85,0.86,8.73,1.96
314542,10.74,-3.90,25.24,0.95,8.73,1.92
314577,12.19,-4.61,30.14,0.98,8.73,1.90
314612,14.98,-6.61,32.94,0.96,8.73,1.88
314647,12.90,-6.49,35.44,0.94,8.73,1.82
314682,12.81,-5.93,39.69,0.95,8.73,1.79
314717,9.85,-7.32,42.82,1.01,8.73,1.73
314752,5.46,-8.06,42.97,1.10,8.73,1.68
314787,1.81,-7.18,42.82,1.18,8.73,1.71
314823,-0.17,-7.09,38.72,1.24,8.73,1.84
314857,-3.85,-6.67,38.14,1.24,8.73,1.94
314892,-3.74,-5.84,34.97,1.16,8.73,2.03
314927,-4.07,-5.69,31.94,1.11,8.73,2.05
314962,-2.35,-2.76,27.92,1.05,8.73,2.04
314997,-0.05,-3.65,25.40,1.02,8.73,1.97
315032,3.00,-3.83,24.41,1.04,8.73,1.95
315067,6.54,-1.32,25.01,1.14,8.73,1.86
315102,9.80,-3.80,24.96,1.23,8.73,1.86
315137,11.51,-5.19,28.22,1.39,8.73,1.94
315172,13.15,-5.86,33.32,1.45,8.73,2.03
315207,12.98,-7.71,36.56,1.38,8.73,2.09
315241,12.15,-8.15,39.32,1.25,8.73,2.07
315281,9.16,-9.09,42.66,1.19,8.73,1.97
315317,4.63,-8.65,44.65,1.21,8.73,1.94
315351,0.70,-7.59,44.85,1.19,8.73,1.99
315386,-3.08,-7.49,42.58,1.16,8.73,2.07
315421,-6.48,-5.84,40.54,1.10,8.73,2.13
315457,-6.46,-5.76,36.25,1.13,8.73,2.17
315491,-5.07,-5.41,31.55,1.17,8.73,2.27
315526,-4.42,-6.31,27.73,1.16,8.73,2.48
315561,0.66,-8.60,25.57,1.04,8.73,2.64
315596,4.95,-8.90,25.23,0.84,8.73,2.64
315631,8.59,-6.62,25.23,0.71,8.73,2.46
315666,12.05,-5.15,28.09,0.70,8.73,2.28
315701,14.03,-5.56,31.10,0.80,8.73,2.14
315736,13.35,-5.90,33.13,0.82,8.73,2.08
315771,13.19,-6.50,35.66,0.88,8.73,2.06
315806,11.27,-9.13,40.07,0.94,8.73,2.06
315841,7.80,-6.27,43.48,0.94,8.73,1.92
315876,4.30,-6.09,45.29,0.98,8.73,1.90
315911,0.25,-6.36,44.01,1.13,8.73,1.86
315946,-3.01,-6.13,41.93,1.18,8.73,1.88
315981,-6.00,-5.33,39.59,1.15,8.73,1.94
316016,-6.79,-5.42,36.24,1.14,8.73,1.97
316051,-5.01,-3.88,32.09,1.14,8.73,1.99
316086,-2.31,-2.23,28.08,1.12,8.73,1.98
316121,2.89,-2.69,25.26,1.13,8.73,1.95
316156,7.04,-3.53,25.28,1.13,8.73,1.96
316192,9.96,-2.72,25.86,1.13,8.73,2.00
316226,11.27,-5.96,26.24,1.15,8.73,2.01
316261,11.86,-5.85,28.80,1.17,8.73,2.11
316296,12.62,-7.86,33.97,1.19,8.73,2.18
316332,12.21,-9.36,38.10,1.12,8.73,2.22
316366,9.41,-7.29,40.83,1.02,8.73,2.24
316401,6.96,-7.77,41.66,0.96,8.73,2.28
316436,3.10,-8.08,43.48,0.82,8.73,2.28
316471,-0.27,-7.11,42.36,0.69,8.73,2.28
316506,-3.70,-6.24,40.33,0.68,8.73,2.15
316541,-5.68,-5.50,37.11,0.68,8.73,2.07
316576,-6.82,-4.82,33.78,0.71,8.73,2.01
316611,-5.37,-4.05,29.47,0.78,8.73,1.95
316646,-3.86,-2.49,25.54,0.86,8.73,1.96
316681,1.85,-2.91,23.88,0.86,8.73,1.97
316716,4.18,-4.44,23.53,0.81,8.73,2.01
316752,7.24,-5.78,22.97,0.71,8.73,2.02
316786,10.38,-6.65,26.56,0.63,8.73,2.00
316821,12.80,-6.50,30.08,0.64,8.73,1.89
316856,14.27,-7.44,33.79,0.65,8.73,1.70
316891,13.01,-5.75,37.69,0.71,8.73,1.57
316926,9.88,-5.12,40.35,0.82,8.73,1.43
316961,6.54,-4.76,42.94,0.97,8.73,1.31
316997,3.48,-5.73,43.36,1.20,8.73,1.41
317031,0.31,-7.45,42.32,1.34,8.73,1.61
317066,-3.59,-7.32,39.99,1.30,8.73,1.81
317101,-5.41,-7.15,35.90,1.20,8.73,1.93
317136,-5.66,-4.63,32.31,1.06,8.73,1.94
317171,-6.89,-4.35,29.65,1.01,8.73,1.88
317207,-3.66,-1.32,26.87,1.04,8.73,1.84
317241,2.26,-1.80,25.24,1.06,8.73,1.92
317276,5.11,-4.19,24.79,1.07,8.73,2.09
317316,8.83,-8.18,24.30,0.97,8.73,2.24
317351,11.22,-7.40,27.59,0.89,8.73,2.26
317386,13.01,-5.93,31.17,0.87,8.73,2.17
317421,13.75,-6.06,35.01,0.91,8.73,2.11
317456,12.59,-6.16,38.53,0.90,8.73,2.11
317491,10.09,-6.52,40.53,0.86,8.73,2.06
317526,5.91,-7.67,41.05,0.86,8.73,2.02
317561,2.56,-8.07,41.07,0.81,8.73,2.03
317596,-0.09,-6.52,40.07,0.85,8.73,1.92
317631,-2.71,-2.56,38.79,0.92,8.73,1.81
317666,-4.44,-6.98,36.64,0.93,8.73,1.91
317701,-4.98,-4.60,31.67,1.16,8.73,1.98
317736,-5.28,-4.64,28.63,1.15,8.73,2.00
317771,-3.61,-6.96,25.43,1.10,8.73,1.97
317806,0.94,-3.23,23.35,1.15,8.73,2.02
317841,5.04,-2.25,24.44,1.20,8.73,1.92
317876,7.89,-1.43,24.74,1.32,8.73,1.90
317911,10.99,-2.96,27.59,1.38,8.73,1.98
317946,13.54,-6.27,30.80,1.42,8.73,2.13
317981,14.49,-7.86,34.32,1.32,8.73,2.25
318016,13.42,-9.04,38.20,1.27,8.73,2.35
318051,9.39,-9.96,39.94,1.14,8.73,2.35
318086,5.99,-9.09,40.07,1.05,8.73,2.25
318121,3.27,-8.02,42.04,0.95,8.73,2.17
318156,-0.07,-7.30,41.16,0.95,8.73,2.15
318191,-3.69,-6.41,40.21,0.90,8.73,2.10
318226,-5.44,-5.80,36.81,0.90,8.73,2.05
318261,-5.78,-4.32,33.00,0.83,8.73,1.94
318296,-3.58,-2.43,29.33,0.77,8.73,1.82
318332,-1.49,-2.10,25.95,0.83,8.73,1.67
318366,2.13,-1.21,24.59,0.94,8.73,1.57
318401,5.16,-2.79,24.69,1.04,8.73,1.63
318436,7.79,-4.00,24.06,1.12,8.73,1.74
318471,11.19,-4.76,27.33,1.12,8.73,1.83
318506,13.81,-6.63,30.99,0.96,8.73,1.85
318541,14.66,-6.01,34.69,0.94,8.73,1.84
318576,13.36,-7.55,37.82,0.96,8.73,1.84
318611,9.19,-8.20,38.70,1.00,8.73,1.79
318646,6.59,-6.24,40.27,1.01,8.73,1.86
318681,3.95,-7.51,42.90,1.21,8.73,1.95
318716,-0.43,-6.75,41.75,1.16,8.73,1.97
318751,-4.63,-8.71,41.26,1.07,8.73,2.11
318786,-4.70,-7.30,36.38,1.10,8.73,2.18
318821,-5.65,-6.09,31.63,1.13,8.73,2.17
318856,-3.86,-5.85,27.80,1.07,8.73,2.10
318891,-2.97,-4.19,24.40,1.03,8.73,2.07
318926,0.91,-2.91,23.23,0.94,8.73,2.01
318961,5.22,-3.06,23.14,0.94,8.73,1.96
318996,7.50,-3.68,23.24,0.92,8.73,1.92
319031,10.70,-6.74,24.88,0.95,8.73,1.93
319066,12.91,-6.75,28.49,0.95,8.73,1.94
319101,13.16,-6.89,31.48,0.91,8.73,1.89
319136,12.03,-4.17,36.98,0.99,8.73,1.91
319171,10.86,-6.56,40.05,0.93,8.73,1.90
319206,7.04,-7.66,41.50,0.96,8.73,1.94
319241,3.27,-8.13,42.62,0.96,8.73,2.02
319276,0.37,-7.29,40.93,0.95,8.73,2.06
319311,-2.96,-5.49,39.27,0.98,8.73,2.01
319351,-4.96,-5.25,35.06,1.01,8.73,2.02
319386,-6.78,-5.56,32.25,1.05,8.73,1.97
319421,-5.77,-2.66,29.10,1.05,8.73,2.00
319456,-2.66,-5.27,24.83,0.96,8.73,2.06
319491,-0.29,-5.70,21.70,1.02,8.73,2.06
319526,2.85,-4.98,20.85,1.01,8.73,2.10
319561,6.92,-3.62,21.47,1.06,8.73,2.06
319596,9.61,-1.91,24.44,1.03,8.73,2.02
319631,9.27,-9.11,24.84,1.17,8.73,1.97
319666,12.25,-6.90,32.28,1.04,8.73,2.05
319701,13.30,-6.86,36.37,1.16,8.73,2.02
319736,11.96,-6.89,40.12,1.10,8.73,2.14
319771,8.89,-7.51,42.22,1.02,8.73,2.01
319806,4.54,-8.78,42.35,0.96,8.73,2.02
319841,-0.11,-7.72,41.70,0.99,8.73,2.00
319876,-2.89,-7.89,40.26,1.08,8.73,1.97
319911,-5.26,-5.48,37.86,1.06,8.73,2.00
319946,-5.41,-5.30,32.97,1.04,8.73,2.00
319981,-5.74,-4.63,29.45,0.96,8.73,2.05
320016,-2.41,-6.96,25.59,1.01,8.73,2.13
320051,1.39,-5.20,23.25,1.01,8.73,2.09
320086,4.35,-2.88,22.74,0.98,8.73,2.04
320121,5.17,-1.51,23.00,1.06,8.73,1.98
320156,7.66,-2.16,24.87,1.08,8.73,1.97
320191,11.03,-6.60,26.98,1.16,8.73,2.00
320226,13.33,-7.13,31.06,1.18,8.73,2.05
320261,13.51,-8.38,34.62,1.11,8.73,2.04
320296,12.33,-6.15,38.10,1.02,8.73,2.00
320331,9.89,-6.32,41.65,0.97,8.73,1.98
320366,5.49,-8.07,41.55,0.98,8.73,1.99
320402,1.43,-8.07,41.70,0.99,8.73,2.03
320436,-1.88,-6.90,39.97,1.09,8.73,1.98
320471,-4.31,-4.85,37.27,1.20,8.73,1.94
320505,-5.39,-4.47,33.94,1.32,8.73,1.98
320540,-6.17,-8.86,31.53,1.11,8.73,2.10
320575,-4.02,-7.13,26.82,1.14,8.73,2.18
320610,-1.30,-4.23,25.45,1.05,8.73,2.07
320645,2.39,-3.70,24.75,1.01,8.73,1.84
320680,7.36,-2.23,25.02,1.06,8.73,1.81
320715,9.62,-1.72,25.80,1.16,8.73,1.80
320750,12.62,-5.20,28.15,1.11,8.73,1.89
320785,13.25,-7.07,30.61,1.10,8.73,1.95
320821,13.99,-8.92,33.58,1.03,8.73,1.91
320855,12.54,-7.92,37.58,0.98,8.73,1.81
320890,9.84,-5.21,40.41,0.98,8.73,1.77
320925,6.55,-5.50,41.49,1.06,8.73,1.82
320960,2.31,-7.84,41.42,1.06,8.73,1.99
320996,-0.48,-7.50,39.94,1.01,8.73,2.05
321030,-2.90,-7.04,37.38,1.01,8.73,2.04
321065,-4.94,-4.07,35.83,0.98,8.73,2.00
321100,-7.42,-4.37,32.91,1.04,8.73,1.97
321135,-6.37,-2.83,29.42,1.03,8.73,1.98
321170,-1.83,-1.71,26.37,1.02,8.73,1.97
321205,2.98,-2.58,25.15,1.06,8.73,2.00
321240,6.80,-4.67,24.57,1.03,8.73,2.06
321275,9.72,-6.80,25.38,0.91,8.73,2.15
321310,11.42,-7.31,27.74,0.92,8.73,2.09
321345,13.53,-5.29,31.13,1.02,8.73,2.03
321385,14.45,-4.81,34.96,1.15,8.73,2.05
321420,12.33,-6.71,38.26,1.19,8.73,2.16
321455,9.70,-7.61,41.61,1.11,8.73,2.18
321490,6.31,-10.00,42.22,1.13,8.73,2.16
321525,2.26,-5.50,43.42,1.18,8.73,2.01
321560,-0.97,-5.96,40.78,1.30,8.73,1.97
321595,-2.80,-5.64,37.97,1.34,8.73,2.08
321630,-5.43,-6.83,35.02,1.45,8.73,2.21
321664,-6.00,-8.72,31.91,1.42,8.73,2.37
321699,-3.83,-6.56,28.73,1.30,8.73,2.49
321734,0.51,-8.16,25.88,1.14,8.73,2.55
321769,3.58,-9.33,23.32,0.97,8.73,2.56
321803,6.42,-6.74,23.88,0.86,8.73,2.45
321838,9.81,-5.02,24.82,0.87,8.73,2.27
321873,11.59,-3.93,28.09,1.01,8.73,2.20
321908,13.20,-5.10,32.39,1.13,8.73,2.19
321943,13.88,-6.38,36.40,1.19,8.73,2.25
321978,12.36,-6.86,39.10,1.11,8.73,2.32
322013,9.12,-8.73,40.61,1.01,8.73,2.27
322048,6.14,-7.94,42.26,0.89,8.73,2.12
322083,1.91,-6.84,43.71,0.85,8.73,2.07
322118,-1.73,-5.21,42.88,1.01,8.73,1.91
322153,-4.57,-5.55,39.15,1.13,8.73,1.91
322188,-5.76,-5.25,34.65,1.20,8.73,1.97
322223,-5.08,-4.70,30.60,1.11,8.73,1.91
322258,-3.86,-1.47,28.04,0.99,8.73,1.86
322293,-0.43,-3.79,25.10,1.03,8.73,1.78
322328,3.92,-3.77,23.66,1.13,8.73,1.77
322363,5.57,-3.87,22.74,1.18,8.73,1.85
322399,8.36,-4.17,23.60,1.16,8.73,2.00
322433,11.52,-3.99,27.10,1.05,8.73,2.09
322468,13.12,-4.73,31.26,1.07,8.73,2.09
322503,13.07,-8.16,34.74,1.13,8.73,2.09
322538,12.36,-6.02,40.36,1.07,8.73,2.03
322573,9.60,-8.82,42.56,1.06,8.73,1.98
322608,5.83,-7.69,42.49,1.14,8.73,1.84
322643,1.61,-6.25,42.22,1.19,8.73,1.62
322678,-1.19,-5.54,39.02,1.38,8.73,1.55
322713,-3.45,-5.79,37.67,1.39,8.73,1.71
322747,-4.99,-7.69,34.00,1.31,8.73,1.91
322782,-5.37,-5.72,30.76,1.11,8.73,1.92
322818,-2.22,-3.95,27.04,1.03,8.73,1.73
322852,-0.04,0.73,24.51,1.02,8.73,1.53
322887,3.84,0.50,23.26,1.16,8.73,1.47
322922,2.51,2.39,25.13,1.43,8.73,1.49
322957,6.61,-1.54,24.79,1.68,8.73,1.56
322992,9.60,0.03,26.32,1.87,8.73,1.81
323027,13.44,-3.43,31.48,2.11,8.73,2.07
323062,14.71,-8.76,35.02,2.01,8.73,2.40
323097,12.06,-11.45,38.13,1.68,8.73,2.52
323132,10.15,-11.05,41.98,1.37,8.73,2.34
323167,6.61,-8.91,42.08,1.25,8.73,2.13
323202,2.20,-7.47,42.88,1.35,8.73,1.94
323237,-0.88,-7.66,39.40,1.50,8.73,1.96
323272,-3.75,-8.25,37.89,1.53,8.73,2.07
323307,-4.44,-8.38,33.56,1.51,8.73,2.24
323342,-6.67,-11.99,30.83,1.38,8.73,2.41
323378,-6.05,-10.13,28.26,1.26,8.73,2.51
323417,-2.37,-7.60,24.92,1.00,8.73,2.51
323452,1.26,-7.79,24.02,0.85,8.73,2.37
323487,7.23,-5.09,24.56,0.80,8.73,2.23
323522,10.34,-3.51,25.53,0.92,8.73,2.07
323557,12.36,-6.47,29.22,1.05,8.73,2.02
323592,13.67,-6.83,33.11,0.96,8.73,2.02
323627,13.80,-8.35,36.30,0.88,8.73,1.94
323662,12.44,-7.65,39.44,0.90,8.73,1.83
323697,9.50,-5.06,41.90,0.94,8.73,1.75
323732,5.38,-6.51,42.77,1.02,8.73,1.79
323767,1.30,-7.87,43.09,1.09,8.73,1.93
323802,-2.17,-7.90,41.75,1.16,8.73,1.95
323837,-3.91,-5.78,38.59,1.25,8.73,1.98
323872,-3.14,-6.37,33.20,1.27,8.73,2.05
323907,-4.93,-5.91,29.89,1.31,8.73,2.11
323942,-3.26,-4.30,27.89,1.29,8.73,2.21
323977,0.95,-5.30,25.49,1.11,8.73,2.11
324012,1.68,-4.03,23.76,1.06,8.73,1.99
324047,6.62,-2.24,24.58,1.12,8.73,1.91
324082,10.49,-5.14,25.12,1.12,8.73,1.97
324117,12.14,-7.40,28.71,1.08,8.73,2.07
324152,13.63,-7.90,32.10,0.93,8.73,2.06
324187,13.76,-8.04,35.58,0.85,8.73,1.97
324222,12.78,-7.64,39.30,0.77,8.73,1.81
324258,10.42,-4.88,42.98,0.78,8.73,1.59
324292,5.61,-5.58,41.44,0.89,8.73,1.42
324328,1.63,-6.84,42.15,1.03,8.73,1.58
324362,-1.95,-7.08,41.59,0.99,8.73,1.81
324398,-3.54,-4.73,37.74,0.93,8.73,1.85
324432,-4.23,-3.56,33.55,0.85,8.73,1.77
324467,-5.83,-1.89,31.40,0.79,8.73,1.67
324502,-3.19,-0.01,28.86,0.93,8.73,1.69
324537,0.81,-2.02,25.05,1.12,8.73,1.62
324572,3.95,-3.42,24.24,1.23,8.73,1.62
324607,7.26,-2.61,23.31,1.31,8.73,1.69
324642,10.14,-2.41,24.14,1.46,8.73,1.71
324677,12.55,-1.71,26.77,1.63,8.73,1.81
324712,12.46,-4.73,30.29,1.72,8.73,1.98
324747,13.82,-7.75,33.13,1.63,8.73,2.19
324782,12.01,-9.55,37.34,1.42,8.73,2.27
324818,9.67,-9.90,41.75,1.21,8.73,2.20
324852,6.59,-8.25,41.66,1.13,8.73,2.10
324887,2.44,-8.76,41.93,1.10,8.73,2.05
324922,-1.40,-7.71,40.90,1.05,8.73,2.15
324957,-3.83,-7.89,37.81,0.94,8.73,2.17
324992,-5.54,-5.95,34.17,0.94,8.73,2.17
325027,-7.15,-6.71,30.68,0.98,8.73,2.19
325062,-5.10,-8.18,27.30,1.02,8.73,2.26
325097,0.45,-7.09,24.03,0.96,8.73,2.30
325132,4.94,-5.84,22.83,0.85,8.73,2.29
325167,5.72,-5.04,21.96,0.73,8.73,2.23
325202,7.19,-5.21,21.84,0.61,8.73,2.18
325237,10.66,-6.71,26.00,0.75,8.73,2.10
325272,13.79,-3.12,29.31,0.76,8.73,2.02
325307,13.09,-5.67,32.05,0.99,8.73,2.00
325343,12.73,-6.16,37.70,0.94,8.73,2.03
325378,10.10,-9.58,39.80,1.05,8.73,2.12
325412,5.88,-9.26,39.63,1.04,8.73,2.15
325452,2.94,-8.32,40.01,1.01,8.73,2.06
325487,-0.32,-7.72,38.21,0.99,8.73,1.98
325522,-3.16,-4.98,36.47,1.03,8.73,1.98
325557,-4.21,-5.40,33.55,1.03,8.73,1.98
325592,-5.92,-4.11,30.14,1.05,8.73,2.03
325627,-5.23,-5.03,27.43,1.03,8.73,2.13
325662,-1.81,-6.97,23.95,1.05,8.73,2.11
325697,1.20,-3.70,22.45,1.01,8.73,2.01
325732,3.57,-1.99,22.84,1.00,8.73,1.91
325767,7.43,-0.38,22.76,1.05,8.73,1.85
325802,9.44,-4.73,24.23,1.18,8.73,1.90
325837,12.29,-4.65,27.91,1.30,8.73,2.01
325872,13.18,-6.28,32.50,1.33,8.73,2.06
325907,13.28,-5.61,37.01,1.23,8.73,2.15
325942,10.41,-8.76,38.00,1.10,8.73,2.09
325977,6.40,-8.77,39.33,1.12,8.73,2.08
326013,4.03,-6.83,41.36,1.10,8.73,1.90
326047,0.35,-4.81,42.15,1.30,8.73,1.76
326082,-4.02,-7.45,40.72,1.48,8.73,1.79
326117,-6.32,-8.03,36.56,1.75,8.73,1.96
326152,-5.76,-10.20,31.76,1.77,8.73,2.18
326187,-5.47,-9.06,27.86,1.55,8.73,2.33
326222,-5.73,-7.16,23.89,1.31,8.73,2.40
326257,-2.32,-7.12,22.93,1.14,8.73,2.19
326292,1.54,-4.24,22.26,1.08,8.73,2.05
326328,6.56,-2.25,22.11,1.11,8.73,1.99
326362,10.58,-2.64,23.66,1.08,8.73,2.03
326398,12.74,-6.32,27.30,1.06,8.73,2.09
326432,13.13,-7.52,30.93,1.03,8.73,2.15
326467,13.10,-7.79,33.55,1.00,8.73,2.12
326502,11.96,-5.50,37.46,0.93,8.73,2.08
326537,9.58,-6.63,40.60,0.85,8.73,2.04
326572,5.19,-8.51,40.02,0.87,8.73,2.03
326607,1.27,-8.01,40.79,0.82,8.73,2.00
326642,-1.55,-3.88,38.67,0.91,8.73,1.89
326677,-3.65,-5.00,35.53,0.94,8.73,1.82
326712,-4.93,-5.46,32.40,1.01,8.73,1.88
326747,-7.46,-5.83,30.47,1.04,8.73,1.82
326782,-3.22,0.05,28.00,0.98,8.73,1.74
326818,-2.73,-2.01,23.76,0.90,8.73,1.58
326852,1.38,-1.56,21.73,1.11,8.73,1.56
326887,5.04,-0.07,22.52,1.30,8.73,1.52
326922,7.90,-1.43,22.78,1.39,8.73,1.64
326957,10.05,-3.91,25.41,1.40,8.73,1.79
326992,13.08,-6.54,27.86,1.39,8.73,1.95
327027,13.14,-8.63,32.00,1.32,8.73,2.03
327062,12.68,-7.38,35.14,1.17,8.73,1.99
327097,10.06,-6.78,37.23,0.97,8.73,1.91
327132,6.60,-9.11,38.47,1.03,8.73,1.81
327167,3.76,-7.52,40.73,1.06,8.73,1.73
327202,0.43,-5.81,41.53,1.10,8.73,1.88
327237,-4.31,-10.23,39.77,1.09,8.73,1.95
327272,-5.21,-6.99,36.26,1.18,8.73,2.00
327307,-5.78,-7.02,32.57,1.10,8.73,1.97
327343,-6.52,-3.59,29.97,1.08,8.73,2.08
327377,-4.71,-7.02,25.42,1.08,8.73,2.16
327412,-0.37,-7.18,22.63,1.15,8.73,2.20
327447,3.55,-4.58,21.50,1.07,8.73,2.07
327487,7.87,-2.44,22.42,1.08,8.73,1.94
327522,10.25,-4.71,22.90,1.30,8.73,1.91
327557,12.17,-3.00,26.65,1.40,8.73,1.98
327592,13.27,-4.49,29.22,1.46,8.73,2.13
327627,12.39,-6.57,32.81,1.45,8.73,2.38
327662,11.38,-9.51,35.65,1.43,8.73,2.57
327697,8.40,-8.28,39.32,1.25,8.73,2.79
327732,5.16,-11.30,38.24,1.01,8.73,2.92
327767,2.20,-9.60,41.33,0.59,8.73,2.93
327802,-2.45,-9.21,39.19,0.40,8.73,2.74
327837,-5.02,-5.65,37.76,0.38,8.73,2.49
327872,-6.25,-4.73,34.05,0.62,8.73,2.33
327907,-4.35,-6.81,28.62,0.80,8.73,2.36
327942,-3.80,-6.92,25.77,0.94,8.73,2.49
327977,-2.48,-9.24,21.94,0.76,8.73,2.68
328012,1.83,-11.59,21.20,0.62,8.73,2.77
328047,6.95,-10.19,21.54,0.41,8.73,2.62
328082,10.16,-4.99,21.49,0.30,8.73,2.33
328117,10.53,-5.54,22.41,0.27,8.73,2.07
328152,11.58,-4.25,26.44,0.52,8.73,1.90
328187,12.71,-5.74,30.05,0.59,8.73,1.74
328222,12.62,-5.78,33.39,0.62,8.73,1.70
328257,10.56,-7.90,36.77,0.83,8.73,1.67
328292,8.40,-3.62,40.57,0.88,8.73,1.70
328328,4.59,-6.66,41.41,1.00,8.73,1.79
328362,0.19,-8.16,41.03,1.09,8.73,1.82
328397,-2.32,-6.41,38.07,1.14,8.73,1.90
328432,-5.16,-4.94,36.01,0.94,8.73,1.91
328467,-5.42,-4.73,32.49,1.00,8.73,1.98
328502,-5.37,-6.76,27.65,1.03,8.73,1.95
328537,-3.50,-1.06,24.92,1.01,8.73,2.01
328572,-1.49,-5.94,20.69,0.93,8.73,2.04
328607,3.23,-6.26,19.84,0.96,8.73,2.10
328642,6.24,-4.67,19.42,0.90,8.73,2.03
328677,8.44,-2.46,21.19,0.80,8.73,2.00
328713,10.17,-5.61,22.54,0.86,8.73,1.95
328748,12.20,-3.62,27.09,0.91,8.73,1.88
328782,13.38,-4.57,29.83,0.98,8.73,1.92
328818,11.26,-8.38,33.63,1.02,8.73,1.88
328852,9.93,-3.94,37.46,0.95,8.73,1.83
328887,7.03,-7.69,39.67,0.97,8.73,1.74
328922,3.52,-6.96,41.54,1.09,8.73,1.73
328957,0.26,-4.22,41.24,1.30,8.73,1.63
328993,-2.75,-5.27,38.46,1.35,8.73,1.70
329027,-5.47,-6.17,34.92,1.51,8.73,1.85
329062,-5.90,-7.26,31.03,1.52,8.73,1.96
329097,-5.67,-4.03,27.10,1.40,8.73,2.07
329132,-6.89,-6.64,23.26,1.27,8.73,2.16
329168,-2.86,-6.46,23.28,1.23,8.73,2.22
329202,3.28,-4.20,22.28,1.06,8.73,2.26
329237,7.81,-4.46,21.26,0.94,8.73,2.24
329272,10.41,-7.65,21.71,0.81,8.73,2.25
329307,12.00,-6.38,25.04,0.76,8.73,2.18
329342,13.30,-5.88,27.62,0.68,8.73,2.06
329377,12.98,-4.37,32.01,0.60,8.73,2.03
329412,12.02,-9.60,34.88,0.67,8.73,1.97
329447,9.68,-5.00,38.59,0.72,8.73,1.90
329482,5.63,-5.21,38.82,0.67,8.73,1.85
329522,2.05,-5.64,40.22,0.75,8.73,1.82
329557,-0.84,-6.27,36.44,0.58,8.73,1.91
329592,-3.20,-5.64,34.30,0.62,8.73,1.88
329627,-5.21,-2.19,32.49,0.55,8.73,1.70
329662,-7.91,-1.03,30.73,0.64,8.73,1.68
329697,-8.23,-4.29,27.43,0.88,8.73,1.66
329732,-4.13,1.39,24.45,0.99,8.73,1.72
329767,-0.79,-2.57,21.62,1.09,8.73,1.80
329802,2.78,-3.45,21.61,1.18,8.73,1.88
329836,6.88,-1.22,21.89,1.26,8.73,1.81
329871,10.58,-2.90,22.88,1.34,8.73,1.83
329906,12.17,-3.59,26.27,1.56,8.73,1.92
329941,13.31,-4.56,28.55,1.59,8.73,2.05
329976,12.86,-7.18,32.19,1.42,8.73,2.24
330011,11.78,-11.77,35.77,1.23,8.73,2.21
330046,8.86,-6.86,39.35,1.03,8.73,2.04
330081,5.06,-7.50,39.00,0.97,8.73,1.89
330115,1.54,-8.98,38.82,1.00,8.73,1.84
330150,-1.27,-3.96,37.70,0.99,8.73,1.83
330185,-4.29,-7.73,34.62,0.98,8.73,1.81
330220,-6.27,-4.91,33.48,1.02,8.73,1.81
330255,-6.56,-3.98,29.63,0.99,8.73,1.72
330290,-8.86,-4.40,28.26,0.75,8.73,1.72
330326,0.77,-3.41,24.70,0.93,8.73,1.69
330360,0.31,1.52,21.24,0.95,8.73,1.38
330395,5.99,1.76,22.94,1.16,8.73,1.28
330430,10.01,-2.01,21.50,1.33,8.73,1.49
330465,10.49,-4.43,22.47,1.40,8.73,1.67
330500,11.73,-4.71,24.44,1.32,8.73,1.79
330535,12.91,-5.99,28.84,1.35,8.73,1.91
330570,13.05,-7.45,32.53,1.46,8.73,2.01
330605,11.39,-7.07,35.97,1.37,8.73,2.18
330640,9.43,-9.60,38.28,1.29,8.73,2.23
330675,5.32,-9.42,40.17,1.19,8.73,2.25
330710,0.66,-8.66,41.48,1.13,8.73,2.19
330745,-0.79,-7.83,37.00,1.05,8.73,2.19
330780,-3.79,-6.18,34.74,1.09,8.73,2.14
330815,-4.59,-6.51,31.06,1.11,8.73,2.10
330850,-6.27,-5.45,28.82,1.06,8.73,2.17
330885,-4.57,-9.71,24.44,1.01,8.73,2.21
330920,-1.84,-4.06,21.87,0.90,8.73,2.14
330955,4.04,-2.34,21.09,0.76,8.73,1.92
330990,6.32,-1.04,20.36,0.81,8.73,1.74
331025,9.67,-3.85,20.92,0.95,8.73,1.68
331060,10.86,-4.51,22.44,0.90,8.73,1.73
331095,11.85,-7.05,24.61,0.80,8.73,1.78
331130,11.85,-5.98,28.34,0.67,8.73,1.68
331165,11.86,-4.46,32.28,0.73,8.73,1.68
331200,10.58,-5.64,35.36,1.00,8.73,1.80
331235,9.06,-6.29,39.24,1.08,8.73,1.98
331270,4.76,-7.27,39.94,1.10,8.73,2.16
331305,0.19,-8.04,41.22,1.07,8.73,2.16
331341,-1.49,-4.37,36.69,1.07,8.73,2.07
331375,-4.33,-6.13,33.50,1.26,8.73,2.02
331411,-4.86,-5.56,29.50,1.32,8.73,2.07
331445,-5.44,-6.32,26.60,1.30,8.73,2.24
331480,-5.02,-7.54,23.87,1.21,8.73,2.38
331515,-4.68,-6.60,20.27,1.02,8.73,2.47
331555,2.53,-5.47,19.50,0.82,8.73,2.41
331590,6.56,-6.00,19.93,0.65,8.73,2.36
331625,8.54,-6.45,18.68,0.52,8.73,2.24
331660,9.67,-5.43,22.13,0.40,8.73,2.09
331695,12.40,-6.15,24.11,0.42,8.73,1.94
331730,12.22,-5.44,28.86,0.37,8.73,1.79
331765,12.52,-4.65,33.23,0.41,8.73,1.69
331800,10.72,-6.66,37.20,0.57,8.73,1.59
331835,8.06,-3.56,39.93,0.68,8.73,1.56
331870,4.43,-5.39,40.40,0.82,8.73,1.63
331905,0.26,-7.04,40.99,0.81,8.73,1.72
331940,-2.44,-2.47,39.30,0.98,8.73,1.66
331975,-4.97,-3.81,35.34,0.99,8.73,1.63
332010,-4.09,-4.31,30.76,1.13,8.73,1.73
332045,-6.55,-4.71,26.08,1.18,8.73,1.69
332080,-3.01,-0.86,24.17,1.15,8.73,1.77
332115,-1.08,-4.21,20.32,1.24,8.73,1.82
332150,2.32,-1.10,19.70,1.28,8.73,1.76
332185,4.85,-0.80,19.97,1.32,8.73,1.75
332220,5.59,-3.25,19.16,1.34,8.73,1.82
332255,9.71,-4.37,23.31,1.30,8.73,1.98
332290,12.65,-7.22,26.20,1.14,8.73,2.08
332326,13.09,-8.00,29.17,1.09,8.73,2.12
332361,12.44,-5.88,34.17,1.02,8.73,2.13
332395,10.14,-7.65,36.55,0.85,8.73,2.16
332430,7.48,-8.26,38.00,0.84,8.73,2.03
332465,3.89,-6.23,40.25,0.81,8.73,1.72
332500,0.48,-5.98,39.60,1.00,8.73,1.50
332535,-2.66,-6.33,36.55,1.36,8.73,1.39
332570,-5.49,-4.73,34.32,1.29,8.73,1.45
332605,-5.61,-6.65,30.37,1.11,8.73,1.57
332640,-6.83,-3.97,27.19,0.80,8.73,1.37
332675,-5.07,2.03,25.61,0.76,8.73,1.13
332710,-1.63,2.64,22.24,0.98,8.73,0.88
332745,1.52,3.50,21.44,1.35,8.73,0.84
332780,5.67,3.96,21.73,1.73,8.73,0.84
332816,9.52,2.07,21.44,2.01,8.73,1.16
332850,10.58,-4.26,25.07,2.16,8.73,1.61
332885,12.37,-7.65,26.07,2.12,8.73,2.06
332920,11.66,-9.20,30.26,1.81,8.73,2.33
332955,11.84,-8.36,35.27,1.52,8.73,2.63
332990,9.76,-12.74,37.25,1.28,8.73,2.77
333025,6.60,-12.37,40.34,1.03,8.73,2.77
333060,2.23,-13.10,41.99,0.65,8.73,3.03
333095,-1.53,-11.09,41.40,0.27,8.73,2.89
333130,-4.89,-8.26,40.48,-0.01,8.73,2.63
333165,-5.58,-1.70,38.79,-0.03,8.73,2.21
333200,-5.32,-3.41,32.27,0.40,8.73,1.92
333236,-2.95,-2.35,28.05,0.53,8.73,1.80
333270,-1.96,-5.53,23.94,0.73,8.73,1.80
333305,1.01,-2.56,22.98,0.82,8.73,1.61
333341,4.64,-2.37,21.86,0.91,8.73,1.57
333375,7.59,-1.72,21.90,1.08,8.73,1.54
333410,12.34,-3.36,26.16,1.39,8.73,1.60
333445,15.34,-4.78,29.84,1.50,8.73,1.76
333480,13.53,-5.64,32.66,1.54,8.73,2.01
333515,11.91,-11.43,33.05,1.35,8.73,2.14
333551,8.76,-10.28,35.98,1.31,8.73,2.31
333590,6.54,-12.08,38.73,1.14,8.73,2.51
333625,2.01,-11.73,40.88,0.90,8.73,2.58
333660,-0.35,-9.29,39.48,0.70,8.73,2.52
333695,-3.94,-8.62,38.00,0.51,8.73,2.34
333730,-5.55,-7.48,33.56,0.41,8.73,2.16
333765,-5.76,-6.20,30.29,0.45,8.73,1.96
333800,-5.32,-3.37,27.01,0.58,8.73,1.80
333835,-4.75,-2.42,23.93,0.61,8.73,1.65
333870,-1.12,-2.39,21.92,0.86,8.73,1.55
333905,3.73,-0.98,21.43,1.06,8.73,1.43
333940,8.22,-0.45,21.65,1.39,8.73,1.34
333975,11.16,1.62,23.06,1.65,8.73,1.44
334010,12.47,-2.41,26.44,1.99,8.73,1.68
334045,12.65,-6.08,29.45,2.17,8.73,2.16
334080,13.25,-11.13,32.99,2.18,8.73,2.64
334115,11.21,-14.52,36.56,1.92,8.73,3.07
334150,8.87,-14.22,41.21,1.54,8.73,3.39
334185,4.41,-13.35,44.07,0.93,8.73,3.53
334220,-0.59,-13.58,44.09,0.36,8.73,3.30
334255,-4.02,-10.47,41.20,0.15,8.73,2.83
334290,-5.22,-7.42,36.54,0.05,8.73,2.43
334326,-6.81,-6.48,33.25,-0.10,8.73,2.08
334360,-6.32,-3.59,31.11,-0.14,8.73,1.69
334395,-3.89,-1.88,27.56,0.14,8.73,1.50
334430,1.78,0.40,25.05,0.43,8.73,1.32
334465,7.96,0.23,23.77,0.72,8.73,1.20
334500,12.32,-5.77,23.73,0.85,8.73,1.32
334535,12.74,-5.70,24.84,0.97,8.73,1.41
334570,14.10,-3.68,26.75,1.11,8.73,1.44
334605,13.12,-4.97,30.48,1.31,8.73,1.59
334640,12.97,-8.31,32.47,1.49,8.73,1.78
334675,10.20,-6.53,34.69,1.49,8.73,2.01
334710,8.38,-10.14,36.95,1.40,8.73,2.31
334745,3.62,-11.67,36.99,1.22,8.73,2.60
334780,0.17,-11.00,34.94,0.88,8.73,2.77
334816,-2.53,-8.85,33.50,0.63,8.73,2.66
334850,-6.63,-7.86,32.64,0.52,8.73,2.43
334885,-5.29,-5.59,28.33,0.62,8.73,2.31
334920,-7.09,-7.75,24.80,0.80,8.73,2.29
334955,-7.43,-7.00,22.62,0.74,8.73,2.30
334990,-3.99,-6.74,18.13,0.64,8.73,2.32
335025,0.41,-7.17,15.29,0.59,8.73,2.36
335060,5.01,-5.91,14.34,0.43,8.73,2.23
335095,6.41,-3.82,13.84,0.40,8.73,1.90
335130,7.12,-1.69,14.90,0.55,8.73,1.61
335165,10.53,-2.72,17.55,0.71,8.73,1.49
335200,12.45,-3.99,20.39,0.72,8.73,1.49
335235,12.99,-5.06,23.16,0.75,8.73,1.47
335270,13.24,-5.48,26.28,0.81,8.73,1.45
335304,10.75,-4.78,28.64,0.85,8.73,1.46
335340,8.19,-6.22,30.89,0.97,8.73,1.50
335374,5.28,-5.11,32.35,1.07,8.73,1.49
335409,2.28,-5.37,34.00,1.14,8.73,1.48
335444,-1.06,-6.22,33.36,1.24,8.73,1.51
335479,-4.64,-5.18,31.73,1.34,8.73,1.51
335514,-5.65,-5.61,27.63,1.40,8.73,1.62
335549,-7.44,-4.69,25.74,1.41,8.73,1.75
335584,-7.43,-6.73,22.61,1.36,8.73,1.85
335624,-5.49,-4.89,18.72,1.20,8.73,1.92
335659,-4.23,-3.93,15.53,1.09,8.73,1.88
335694,-0.03,-2.83,14.29,1.01,8.73,1.82
335729,1.41,-0.61,13.48,1.00,8.73,1.59
335764,4.69,-0.26,13.60,1.09,8.73,1.50
335799,6.90,0.12,14.39,1.24,8.73,1.49
335835,9.98,-0.11,18.12,1.39,8.73,1.55
335869,12.96,-3.76,19.24,1.48,8.73,1.68
335904,13.62,-4.90,22.23,1.49,8.73,1.83
335939,12.33,-6.09,25.70,1.45,8.73,2.00
335974,11.01,-7.54,29.14,1.29,8.73,2.11
336009,7.62,-7.25,31.17,1.10,8.73,2.11
336044,4.05,-6.78,31.10,0.98,8.73,1.97
336079,1.74,-6.34,33.07,0.98,8.73,1.86
336114,-0.82,-5.56,32.71,1.00,8.73,1.79
336149,-3.54,-6.19,30.55,1.02,8.73,1.78
336184,-6.22,-4.60,28.68,1.06,8.73,1.77
336219,-6.82,-4.96,25.34,1.12,8.73,1.84
336254,-6.85,-5.29,20.96,1.14,8.73,1.92
336289,-5.27,-4.92,17.78,1.06,8.73,1.97
336324,-3.74,-5.40,14.38,0.99,8.73,2.03
336359,-0.93,-5.11,12.77,0.89,8.73,2.09
336394,0.26,-4.20,11.85,0.79,8.73,2.09
336429,3.81,-5.53,12.83,0.69,8.73,2.00
336464,7.01,-3.33,14.80,0.62,8.73,1.95
336499,9.22,-2.16,16.71,0.67,8.73,1.85
336534,11.46,-5.06,18.65,0.76,8.73,1.77
336569,12.35,-4.33,22.17,0.71,8.73,1.76
336604,12.24,-4.92,25.35,0.73,8.73,1.73
336639,11.68,-5.37,28.62,0.76,8.73,1.74
336674,8.59,-5.40,30.22,0.79,8.73,1.76
336709,5.49,-5.93,31.25,0.81,8.73,1.83
336744,2.89,-5.91,32.52,0.78,8.73,1.77
336779,0.03,-5.12,32.50,0.75,8.73,1.76
336815,-2.60,-4.39,30.96,0.78,8.73,1.67
336849,-5.15,-4.25,28.73,0.83,8.73,1.63
336884,-5.49,-3.46,25.30,0.84,8.73,1.59
336919,-6.82,-3.26,21.79,0.80,8.73,1.53
336954,-6.18,-1.87,19.47,0.80,8.73,1.49
336989,-7.10,-1.80,16.40,0.85,8.73,1.44
337024,-1.20,-0.04,15.97,0.88,8.73,1.35
337059,0.23,0.24,13.08,0.99,8.73,1.31
337094,1.90,1.08,14.14,1.12,8.73,1.31
337129,5.34,1.26,14.76,1.31,8.73,1.25
337164,8.43,-0.49,15.86,1.51,8.73,1.30
337199,10.82,-2.28,17.82,1.64,8.73,1.45
337234,12.27,-3.96,19.66,1.63,8.73,1.64
337269,12.91,-6.39,23.43,1.45,8.73,1.77
337304,11.72,-7.96,26.91,1.25,8.73,1.79
337339,9.81,-7.50,29.68,1.09,8.73,1.69
337373,7.78,-6.88,31.47,1.05,8.73,1.64
337408,3.86,-6.47,31.58,1.09,8.73,1.59
337443,0.86,-6.53,31.93,1.19,8.73,1.51
337478,-1.59,-5.77,30.99,1.24,8.73,1.53
337513,-4.11,-5.33,29.39,1.22,8.73,1.59
337548,-6.08,-5.94,26.78,1.16,8.73,1.69
337583,-6.44,-3.87,22.88,1.19,8.73,1.76
337618,-7.23,-4.05,20.44,1.28,8.73,1.85
337658,-5.92,-6.23,17.18,1.25,8.73,1.99
337693,-5.09,-6.50,14.01,1.14,8.73,2.09
337728,-1.78,-5.05,12.90,0.99,8.73,2.04
337763,0.91,-2.53,12.15,0.91,8.73,1.79
337798,5.07,-1.47,12.40,0.96,8.73,1.62
337834,8.22,-0.79,13.17,1.04,8.73,1.58
337868,9.93,-2.79,15.52,1.14,8.73,1.59
337903,11.78,-2.58,18.11,1.14,8.73,1.69
337938,11.84,-4.49,20.87,1.18,8.73,1.78
337973,11.49,-5.43,24.00,1.14,8.73,1.87
338008,10.84,-5.95,26.93,1.10,8.73,1.98
338043,7.99,-5.91,28.61,1.05,8.73,2.11
338078,5.28,-6.39,29.81,0.90,8.68,2.30
338113,2.87,-7.24,31.45,0.69,8.72,2.40
338148,-0.14,-6.19,30.99,0.47,8.73,2.33
338183,-2.78,-4.07,29.36,0.38,8.73,2.12
338218,-4.56,-3.14,27.39,0.48,8.73,1.88
338253,-5.54,-3.10,24.95,0.64,8.73,1.76
338289,-5.92,-3.94,22.14,0.89,8.73,1.76
338324,-6.06,-4.30,19.39,1.01,8.73,1.87
338358,-4.82,-5.85,15.94,1.01,8.73,2.00
338393,-4.12,-5.35,13.09,0.92,8.73,2.03
338428,-0.18,-3.77,12.25,0.78,8.73,1.87
338463,2.80,-1.83,11.44,0.74,8.73,1.72
338498,5.76,-1.96,11.82,0.78,8.73,1.56
338533,8.10,-2.53,12.75,0.81,8.69,1.54
338568,9.55,-3.99,14.33,0.82,8.67,1.54
338603,11.04,-3.79,16.92,0.78,8.66,1.54
338638,12.30,-4.90,19.66,0.69,8.63,1.51
338673,12.14,-4.88,22.49,0.67,8.62,1.44
338708,10.88,-5.47,25.18,0.64,8.59,1.35
338743,8.17,-5.18,26.31,0.66,8.61,1.25
338778,6.57,-5.55,29.23,0.73,8.56,1.06
338813,3.72,-5.26,29.59,0.83,8.56,0.97
338848,0.58,-4.31,29.74,0.97,8.57,0.99
338883,-1.65,-5.02,27.94,1.03,8.59,1.10
338918,-4.16,-5.43,27.20,0.88,8.57,1.30
338953,-4.79,-4.30,23.82,0.62,8.58,1.36
338988,-7.21,-3.44,22.18,0.35,8.59,1.29
339023,-7.94,1.14,20.39,0.26,8.67,1.08
339058,-5.46,2.66,17.53,0.31,8.73,0.87
339093,-5.49,2.35,12.67,0.51,8.71,0.74
339128,-1.09,3.03,11.89,0.79,8.66,0.79
339164,1.95,2.17,10.77,0.99,8.54,0.91
339198,3.19,-0.55,10.06,1.09,8.47,1.11
339233,4.74,-2.54,9.97,1.14,8.48,1.32
339268,7.51,-2.91,11.87,1.14,8.55,1.49
339303,8.88,-3.61,16.08,1.16,8.58,1.58
339339,12.04,-3.57,17.38,1.19,8.56,1.68
339373,12.01,-4.84,20.28,1.24,8.57,1.83
339408,11.59,-6.62,23.13,1.16,8.57,2.00
339443,9.95,-8.31,25.19,1.04,8.58,2.13
339478,8.79,-8.09,28.98,0.92,8.63,2.34
339513,5.57,-9.04,29.27,0.72,8.62,2.59
339548,2.64,-9.68,31.31,0.48,8.67,2.59
339583,-1.30,-9.10,31.95,0.12,8.73,2.58
339618,-4.04,-6.14,29.97,-0.22,8.73,2.36
339653,-5.83,-6.34,27.23,-0.30,8.73,2.02
339692,-9.60,-2.46,27.47,-0.39,8.73,1.67
339727,-8.51,0.55,24.27,-0.23,8.73,1.33
339762,-6.67,1.65,20.36,0.06,8.73,1.09
339797,-4.76,0.49,17.03,0.45,8.73,1.11
339833,0.78,-0.20,14.90,0.66,8.73,1.02
339867,3.20,0.54,14.78,0.85,8.73,0.81
339902,5.22,0.32,14.14,1.13,8.73,0.84
339937,6.16,0.62,14.37,1.35,8.73,1.06
339972,8.80,-4.57,16.73,1.39,8.73,1.38
340007,12.01,-6.56,20.50,1.38,8.73,1.61
340042,11.87,-6.74,25.39,1.46,8.73,1.79
340077,12.23,-7.85,27.90,1.47,8.73,1.99
340112,11.34,-8.63,30.29,1.42,8.73,2.24
340147,7.72,-10.74,32.36,1.34,8.73,2.53
340182,3.89,-11.59,33.01,1.09,8.73,2.83
340217,1.39,-9.84,35.36,0.71,8.73,2.79
340252,-2.16,-9.77,33.04,0.51,8.73,2.63
