timestamp,accelX,accelY,accelZ,gyroX,gyroY,gyroZ
7032,8.69,0.25,-2.49,0.37,1.48,0.50
7067,8.11,0.99,-2.22,0.28,1.61,0.51
7102,8.78,1.36,-1.87,0.28,1.74,0.54
7137,8.16,1.36,-0.53,0.24,1.90,0.56
7172,9.16,2.27,-0.19,0.38,2.02,0.61
7207,8.62,3.48,0.78,0.67,2.18,0.67
7242,8.63,-0.38,1.71,0.72,2.35,0.75
7277,10.28,0.18,3.99,0.76,2.51,0.80
7312,9.78,-0.50,4.81,0.86,2.65,0.90
7347,9.13,-2.48,5.99,0.74,2.70,0.85
7382,10.30,-5.11,8.23,0.49,2.62,0.59
7417,8.94,-5.26,8.50,0.19,2.47,0.12
7452,8.05,-4.63,8.36,-0.12,2.30,-0.42
7487,7.42,-2.71,8.68,-0.47,2.25,-0.99
7522,6.24,-1.07,8.79,-0.66,2.27,-1.50
7557,5.70,0.41,9.20,-0.64,2.40,-1.80
7592,5.52,0.85,9.35,-0.43,2.60,-1.73
7627,4.93,2.44,10.49,-0.18,2.87,-1.51
7662,4.15,0.54,11.06,-0.02,3.03,-1.26
7697,3.12,0.94,11.64,0.10,3.09,-1.01
7732,2.08,0.53,11.71,0.21,2.96,-0.78
7767,0.99,1.10,11.26,0.27,2.75,-0.63
7802,0.23,0.64,11.54,0.25,2.60,-0.49
7837,-0.71,-1.76,13.24,0.25,2.73,-0.15
7872,-1.67,3.56,12.43,0.29,2.53,0.01
7907,-2.54,-2.13,10.71,0.35,2.60,-0.22
7942,-4.26,-0.63,11.14,0.33,2.33,0.08
7977,-4.26,-0.18,12.95,0.16,2.42,0.13
8012,-3.73,-6.52,10.01,-0.42,2.72,0.72
8047,-5.67,-6.53,10.97,-1.47,2.99,1.74
8082,-4.24,6.96,9.46,-1.76,2.92,1.63
8122,-6.27,0.61,7.30,-1.33,2.61,1.04
8157,-7.76,-1.10,7.45,-0.96,2.41,0.88
8192,-9.31,1.58,8.74,-0.56,2.39,0.86
8227,-8.22,2.93,6.17,-0.23,2.32,0.68
8262,-8.07,1.72,5.24,-0.13,2.21,0.51
8297,-8.69,-1.05,5.14,-0.12,2.22,0.45
8333,-10.22,-2.15,6.17,-0.38,2.39,0.51
8367,-11.91,1.96,7.79,-0.39,2.72,0.52
8402,-10.99,1.86,7.06,-0.24,3.12,0.45
8437,-11.82,3.41,5.78,-0.07,3.49,0.37
8472,-8.61,1.56,2.78,-0.01,3.71,0.26
8507,-8.28,0.67,0.29,-0.21,3.78,0.11
8542,-7.86,2.06,0.30,-0.14,3.77,0.13
8577,-9.57,2.40,0.02,-0.00,3.85,0.16
8612,-11.02,5.15,1.38,0.25,4.05,0.31
8647,-9.06,1.58,-0.39,0.42,4.37,0.40
8682,-5.60,0.11,-2.65,0.36,4.61,0.24
8717,0.57,2.09,-3.94,0.34,4.59,0.15
8752,5.03,2.73,-5.29,0.47,4.25,0.30
8787,5.27,0.13,-6.16,0.50,3.86,0.71
8823,4.97,-2.65,-5.87,0.38,3.56,0.91
8857,2.64,-2.63,-6.94,0.22,3.44,0.96
8892,1.15,-1.65,-6.49,0.03,3.49,1.19
8927,1.23,-2.09,-6.32,-0.11,3.67,1.31
8962,2.49,-0.53,-3.96,-0.16,3.92,1.18
8997,5.78,0.68,-2.75,-0.03,4.11,1.03
9032,10.41,4.06,0.54,0.22,4.09,0.97
9067,12.09,2.36,1.91,0.53,3.87,0.89
9102,11.94,2.05,1.85,0.75,3.61,0.94
9137,7.69,3.82,0.65,1.15,3.51,0.97
9172,11.89,0.79,3.51,1.42,3.58,1.07
9207,7.98,-1.46,3.37,1.93,3.81,1.32
9242,9.35,0.51,5.97,2.00,3.51,1.54
9277,10.50,-11.56,7.56,1.92,3.88,1.73
9313,7.33,-3.93,6.23,1.74,4.07,1.75
9347,8.27,-10.94,9.11,1.22,4.33,1.46
9382,7.21,-7.84,11.76,0.79,4.52,0.93
9417,6.09,-3.68,12.62,0.43,4.51,0.35
9452,5.20,-3.59,14.29,0.46,4.47,0.37
9487,3.06,-3.81,13.03,0.66,4.31,0.93
9522,2.50,-3.31,15.86,0.58,4.30,1.68
9557,1.29,-5.53,16.29,0.21,4.54,2.14
9592,-0.51,-7.87,16.06,0.00,4.73,2.42
9627,-2.32,-5.86,17.48,-0.23,4.85,2.51
9662,-3.37,-4.89,16.86,-0.40,5.06,2.39
9697,-6.02,-3.38,17.71,-0.53,5.23,2.19
9732,-6.96,-1.32,16.49,-0.50,5.41,1.87
9767,-9.35,-1.63,16.38,-0.29,5.65,1.63
9802,-10.88,-1.76,14.58,0.05,5.88,1.54
9837,-10.19,-0.04,11.99,0.52,6.03,1.62
9872,-7.82,-2.26,7.80,1.17,5.97,1.94
9907,-5.21,-7.43,3.55,1.53,5.74,2.46
9942,-5.26,-8.85,0.80,1.54,5.48,2.94
9977,-4.27,-9.26,-0.98,1.28,5.29,3.24
10012,-3.07,-10.13,-0.39,0.97,5.22,3.33
10047,-0.59,-7.91,-0.10,0.53,5.33,2.92
10082,-0.26,-2.94,-1.02,0.27,5.52,2.35
10117,1.32,0.16,0.46,0.24,5.76,1.81
10157,3.03,-0.42,0.02,0.27,5.95,1.49
10192,3.48,-2.87,0.84,0.13,6.14,1.54
10227,5.98,-4.38,3.03,-0.14,6.30,1.62
10262,8.35,-5.64,5.27,-0.38,6.46,1.49
10297,9.19,-4.31,7.76,-0.65,6.68,1.33
10332,9.22,-1.54,10.79,-0.62,6.94,1.13
10367,10.08,-1.81,14.40,-0.45,7.16,0.91
10402,10.61,-0.27,18.43,-0.29,7.33,0.78
10437,9.28,-2.15,20.26,-0.09,7.57,0.70
10472,9.15,-1.12,25.68,0.21,7.81,0.78
10507,4.14,-1.72,25.72,0.38,8.00,1.13
10542,2.98,-4.59,27.93,0.43,8.09,1.39
10577,0.24,-2.58,27.09,0.29,8.08,1.56
10612,-3.52,-4.76,24.56,-0.08,7.97,1.65
10647,-4.48,-1.96,21.70,-0.55,7.89,1.63
10682,-7.13,-0.09,20.85,-0.88,7.65,1.35
10717,-8.33,2.84,18.85,-1.13,7.64,0.97
10752,-6.86,4.95,17.27,-1.03,7.67,0.63
10787,-8.49,6.09,15.62,-0.63,7.85,0.44
10823,-7.54,5.72,14.01,-0.12,7.99,0.59
10857,-4.92,2.18,11.02,0.39,8.05,1.06
10892,-2.06,-4.63,7.72,0.60,7.89,1.58
10927,1.42,-8.73,6.82,0.43,7.81,2.00
10962,4.28,-6.76,7.02,0.15,7.73,2.29
10997,6.15,-7.27,6.78,-0.13,7.70,2.28
11032,9.62,-6.85,10.23,-0.29,7.74,2.07
11067,10.38,-2.09,11.78,-0.17,7.85,1.74
11102,8.10,-0.96,12.76,0.16,7.93,1.57
11137,10.33,-0.74,15.80,0.45,7.98,1.48
11172,11.98,-1.09,19.62,0.69,8.00,1.56
11207,10.47,-4.20,22.53,0.86,7.95,1.71
11242,8.79,-3.51,24.18,0.92,7.90,1.89
11277,7.18,-6.24,25.53,0.88,7.84,2.03
11312,3.32,-5.61,26.76,0.79,7.83,1.97
11347,1.76,-4.62,27.64,0.70,7.91,1.86
11382,-1.14,-4.53,26.12,0.81,7.97,1.65
11417,-3.68,-2.24,26.30,0.97,7.95,1.50
11452,-6.14,-3.33,24.07,1.14,7.91,1.46
11487,-7.83,-3.22,20.67,1.31,7.89,1.54
11522,-6.06,-3.71,17.54,1.32,7.90,1.67
11557,-8.17,-3.69,14.93,1.30,7.88,1.80
11592,-7.24,-2.67,12.78,1.33,7.85,2.01
11627,-6.85,-6.00,10.16,1.29,7.86,2.25
11662,-4.60,-7.69,8.94,1.16,7.91,2.50
11697,-0.81,-8.64,8.15,0.89,8.04,2.64
11732,2.32,-6.50,9.31,0.69,8.27,2.50
11767,5.11,-2.33,11.23,0.65,8.47,2.20
11802,9.05,-1.38,14.18,0.78,8.58,1.99
11837,12.01,-1.99,17.12,0.93,8.51,1.92
11872,13.51,-1.05,18.59,1.15,8.38,1.93
11907,12.48,-1.80,20.29,1.19,8.27,2.08
11942,10.05,-5.44,22.64,1.25,8.24,2.31
11977,9.26,-6.07,25.57,1.13,8.23,2.51
12012,7.43,-7.81,27.43,0.91,8.15,2.67
12047,5.00,-7.04,27.66,0.63,8.01,2.79
12082,3.50,-7.20,28.49,0.30,8.02,2.70
12117,0.12,-6.90,28.91,0.13,8.14,2.48
12152,-3.34,-3.79,28.64,0.12,8.37,2.12
12192,-6.02,-2.23,28.12,0.50,8.55,1.69
12227,-4.93,-2.69,22.78,0.94,8.59,1.55
12262,-6.69,-5.02,19.38,1.14,8.52,1.58
12297,-7.13,-5.45,17.90,1.00,8.55,1.58
12333,-6.95,-2.32,16.19,0.75,8.67,1.34
12368,-4.78,2.18,14.51,0.64,8.73,0.89
12402,-1.76,4.08,12.94,0.79,8.73,0.55
12436,0.42,3.61,12.54,1.06,8.73,0.50
12471,4.18,0.05,13.16,1.28,8.73,0.74
12506,7.63,-4.02,11.86,1.28,8.73,1.13
12541,9.65,-6.72,16.96,1.06,8.73,1.41
12576,12.04,-6.11,19.40,0.89,8.73,1.49
12611,11.72,-4.94,21.72,0.87,8.73,1.50
12646,10.77,-4.65,24.22,0.90,8.73,1.56
12681,10.05,-5.58,26.80,0.91,8.73,1.65
12716,8.26,-6.87,29.26,0.91,8.73,1.78
12751,4.53,-7.37,29.96,0.83,8.73,1.89
12786,2.31,-8.41,32.01,0.75,8.73,1.98
12821,0.02,-8.42,32.24,0.56,8.73,2.10
12856,-2.05,-7.94,28.92,0.30,8.73,2.12
12891,-5.98,-7.09,29.66,-0.10,8.73,2.06
12926,-6.77,-3.28,27.91,-0.31,8.73,1.83
12961,-9.39,0.55,26.77,-0.25,8.73,1.54
12996,-6.98,0.82,24.16,0.07,8.73,1.37
13031,-5.43,1.43,20.63,0.41,8.73,1.32
13066,0.55,-1.76,18.08,0.71,8.73,1.41
13101,3.17,-4.00,14.66,0.83,8.73,1.48
13136,4.21,-2.29,14.27,0.90,8.73,1.50
13171,7.14,-3.38,15.96,0.96,8.73,1.55
13206,8.74,-2.61,18.97,1.01,8.73,1.59
13241,11.08,-5.95,22.04,1.02,8.73,1.63
13276,12.37,-7.68,23.90,0.85,8.73,1.66
13311,13.17,-9.20,27.87,0.66,8.73,1.57
13347,10.40,-7.81,31.04,0.60,8.73,1.49
13381,6.57,-6.73,32.80,0.74,8.73,1.60
13416,4.47,-7.96,32.10,0.77,8.73,1.99
13451,2.56,-9.83,35.02,0.49,8.73,2.45
13486,-1.14,-10.96,34.52,-0.03,8.73,2.62
13521,-5.46,-5.74,37.40,-0.49,8.73,2.46
13556,-7.63,-1.43,35.60,-0.57,8.73,2.04
13591,-6.85,-1.95,31.44,-0.27,8.73,1.65
13626,-4.50,0.83,27.35,0.06,8.73,1.44
13661,-5.00,-0.65,21.15,0.28,8.73,1.26
13696,-1.63,1.36,19.18,0.57,8.73,1.10
13731,3.83,0.26,20.31,0.79,8.73,1.06
13766,6.40,-1.75,18.71,0.95,8.73,1.23
13801,9.10,-4.81,19.98,0.99,8.73,1.43
13837,10.42,-5.90,22.67,0.98,8.73,1.59
13871,12.72,-6.30,25.55,0.95,8.73,1.65
13906,12.83,-6.20,29.26,1.04,8.73,1.66
13941,12.15,-5.86,29.48,1.09,8.73,1.76
13976,7.69,-8.83,34.91,1.24,8.73,2.18
14011,6.88,-9.46,36.99,1.10,8.73,2.40
14046,1.58,-10.43,36.29,0.74,8.73,2.59
14081,-0.24,-9.45,38.05,0.44,8.73,2.61
14116,-4.36,-7.82,36.49,0.18,8.73,2.39
14151,-7.12,-5.55,35.47,0.17,8.73,2.18
14186,-6.47,-4.13,31.13,0.23,8.73,1.87
14226,-4.95,-3.28,26.06,0.36,8.73,1.61
14261,-2.95,0.66,22.62,0.56,8.73,1.48
14296,-1.53,0.04,20.01,0.69,8.73,1.31
14332,1.17,-1.17,20.39,0.89,8.73,1.30
14366,5.19,-2.59,19.35,1.12,8.73,1.35
14402,9.03,-2.60,22.62,1.20,8.73,1.52
14436,12.15,-3.82,24.41,1.35,8.73,1.65
14471,12.39,-5.55,28.92,1.49,8.73,1.80
14506,13.02,-7.07,32.20,1.53,8.73,2.01
14541,12.07,-10.32,34.82,1.56,8.73,2.28
14576,7.66,-10.18,37.38,1.39,8.73,2.39
14611,5.94,-10.14,38.34,1.19,8.73,2.43
14646,1.05,-11.30,38.41,1.07,8.73,2.46
14681,-0.54,-9.13,35.38,0.93,8.73,2.41
14716,-4.65,-8.67,34.12,0.71,8.73,2.33
14751,-6.32,-7.13,32.11,0.60,8.73,2.23
14786,-6.38,-4.83,29.60,0.48,8.73,2.05
14821,-4.31,-3.59,26.46,0.50,8.73,1.91
14856,-4.77,-3.54,22.87,0.47,8.73,1.67
14891,-0.77,-2.62,23.12,0.58,8.73,1.66
14926,-0.51,-4.11,22.44,0.68,8.73,1.73
14961,2.08,-2.86,22.93,0.78,8.73,1.82
14996,5.77,-6.60,26.46,0.78,8.73,1.93
15031,11.54,-8.31,32.14,0.78,8.73,1.96
15066,14.91,-8.20,37.95,0.88,8.73,1.91
15101,12.74,-8.05,41.03,0.98,8.73,1.92
15136,10.68,-9.82,44.04,1.10,8.73,2.10
15171,5.30,-9.36,40.37,1.01,8.73,2.27
15206,2.61,-9.78,45.26,0.80,8.73,2.52
15241,0.23,-6.24,41.96,0.54,8.73,2.41
15276,-3.94,-6.93,42.21,0.40,8.73,2.28
15311,-6.93,-5.18,40.05,0.58,8.73,2.15
15346,-6.51,-4.71,36.79,0.75,8.73,2.11
15381,-4.56,-7.53,33.91,0.93,8.73,2.27
15416,-1.84,-9.04,31.48,0.96,8.73,2.45
15451,-1.43,-7.85,31.80,0.91,8.73,2.39
15486,0.81,-5.51,30.22,0.99,8.73,2.26
15521,7.57,-3.30,38.71,1.26,8.73,2.17
15556,15.72,-8.97,41.27,1.45,8.73,2.31
15591,15.92,-11.39,46.59,1.27,8.73,2.43
15626,12.77,-11.45,50.25,1.20,8.73,2.47
15661,11.44,-10.57,56.31,1.24,8.73,2.65
15696,6.35,-13.93,58.98,1.13,8.73,3.03
15731,1.27,-11.32,58.05,0.78,8.73,3.04
15766,-3.44,-8.88,54.61,0.59,8.73,2.75
15801,-3.76,-8.07,48.25,0.43,8.73,2.46
15837,-4.76,-4.00,43.81,0.40,8.73,2.17
15871,-2.60,-1.46,40.05,0.52,8.73,2.00
15906,2.59,-1.80,38.27,0.76,8.73,1.92
15941,5.93,-2.83,37.23,0.99,8.73,1.88
15976,9.93,-4.04,38.30,1.17,8.73,1.88
16011,14.06,-7.22,44.19,1.26,8.73,1.95
16045,15.13,-7.58,48.53,1.23,8.73,1.96
16080,15.32,-9.84,52.51,1.34,8.73,1.87
16115,11.62,-8.57,54.88,1.36,8.73,1.69
16150,7.83,-7.01,54.36,1.54,8.73,1.45
16185,2.83,-9.39,52.60,1.96,8.73,1.53
16220,-0.67,-11.20,50.72,2.04,8.73,1.92
16260,-5.63,-11.94,48.86,1.86,8.73,2.34
16295,-5.99,-10.50,44.29,1.62,8.73,2.46
16330,-1.29,-7.88,39.33,1.35,8.73,2.39
16366,2.30,-4.57,34.71,1.27,8.73,2.21
16400,8.05,-2.41,35.98,1.37,8.73,2.00
16435,10.53,-1.78,35.07,1.60,8.73,1.90
16470,11.93,-4.57,38.20,1.77,8.73,2.09
16505,14.72,-6.80,41.18,1.72,8.73,2.31
16540,13.97,-9.80,44.41,1.59,8.73,2.47
16575,14.10,-10.68,49.06,1.33,8.73,2.44
16610,9.77,-10.02,50.67,1.23,8.73,2.31
16645,5.50,-8.72,51.65,1.27,8.73,2.05
16680,1.79,-6.63,50.53,1.41,8.73,1.93
16715,-2.17,-8.77,47.10,1.56,8.73,1.99
16750,-3.00,-11.08,44.91,1.48,8.73,2.36
16785,-7.34,-8.61,43.86,1.38,8.73,2.48
16820,-6.42,-8.22,40.39,1.30,8.73,2.53
16855,-2.41,-9.70,35.12,1.19,8.73,2.51
16890,2.40,-8.58,33.09,1.09,8.73,2.55
16925,6.36,-6.49,32.48,1.03,8.73,2.53
16960,10.99,-8.31,36.64,1.00,8.73,2.43
16995,15.31,-8.81,40.27,0.98,8.73,2.37
17030,14.57,-8.35,44.58,1.03,8.73,2.34
17065,13.80,-7.87,46.79,1.08,8.73,2.39
17100,9.32,-10.00,48.77,1.02,8.73,2.45
17135,6.49,-11.11,51.28,0.94,8.73,2.59
17170,2.16,-10.07,51.50,0.77,8.73,2.69
17205,-1.79,-8.37,48.11,0.69,8.73,2.59
17240,-4.21,-6.51,45.30,0.71,8.73,2.46
17275,-6.10,-6.22,42.18,0.85,8.73,2.42
17310,-4.59,-7.94,38.53,1.06,8.73,2.56
17346,-4.87,-7.03,34.86,1.12,8.73,2.77
17381,4.51,-10.91,35.03,1.00,8.73,2.78
17415,11.59,-9.10,33.39,0.85,8.73,2.61
17450,13.71,-7.58,32.81,0.76,8.73,2.40
17485,11.48,-7.31,36.37,0.68,8.73,2.24
17520,14.17,-12.20,38.48,0.65,8.73,2.11
17555,12.59,-8.44,43.69,0.54,8.73,2.01
17590,11.13,-6.33,48.51,0.71,8.73,2.05
17625,7.35,-9.09,49.65,0.81,8.73,2.17
17660,3.42,-9.87,49.39,0.85,8.73,2.28
17695,-0.29,-7.41,47.86,0.69,8.73,2.32
17730,-3.62,-6.46,46.62,0.65,8.73,2.19
17765,-4.85,-4.05,44.11,0.76,8.73,2.09
17800,-7.96,-3.89,41.25,0.90,8.73,2.05
17835,-2.62,-5.61,36.57,0.95,8.73,2.04
17870,4.84,-5.16,32.87,1.00,8.73,2.05
17905,5.09,-4.76,32.24,1.00,8.73,2.16
17940,11.00,-6.21,29.96,1.00,8.73,2.22
17975,12.38,-6.90,32.81,0.93,8.73,2.24
18010,13.97,-6.73,36.41,1.01,8.73,2.25
18045,14.62,-7.02,40.97,1.13,8.73,2.30
18080,13.54,-9.39,46.20,1.24,8.73,2.37
18115,9.80,-8.56,48.60,1.22,8.73,2.38
18150,5.13,-9.51,48.62,1.19,8.73,2.37
18185,1.32,-8.93,48.32,1.19,8.73,2.42
18220,-3.31,-9.99,46.87,1.23,8.73,2.44
18255,-6.84,-7.04,48.01,1.37,8.73,2.39
18295,-9.73,-9.39,43.22,1.34,8.73,2.49
18331,-4.42,-8.05,38.16,1.24,8.73,2.53
18366,1.89,-7.59,31.12,1.11,8.73,2.54
18400,6.49,-9.33,29.49,1.01,8.73,2.58
18435,7.57,-8.37,29.21,0.85,8.73,2.63
18470,9.84,-10.79,31.84,0.62,8.73,2.59
18505,13.17,-11.15,35.04,0.43,8.73,2.44
18540,14.54,-7.69,39.44,0.35,8.73,2.23
18575,13.77,-6.93,43.66,0.52,8.73,2.13
18610,10.55,-6.47,45.67,0.66,8.73,2.15
18645,7.62,-9.48,47.51,0.70,8.73,2.33
18680,3.47,-9.33,49.11,0.67,8.73,2.43
18715,0.16,-8.94,47.99,0.48,8.73,2.46
18750,-3.37,-6.23,45.47,0.35,8.73,2.29
18785,-3.90,-2.27,41.27,0.40,8.73,2.03
18820,-4.61,-2.50,36.65,0.56,8.73,1.82
18855,-5.74,-3.09,32.70,0.75,8.73,1.78
18890,-1.46,-3.73,30.19,0.88,8.73,1.84
18925,3.44,-4.83,29.73,0.91,8.73,1.97
18960,8.08,-5.60,29.16,0.89,8.73,2.07
18995,11.13,-5.65,31.38,0.85,8.73,2.08
19030,13.74,-6.10,35.02,0.86,8.73,2.02
19065,14.16,-6.19,39.33,0.95,8.73,1.94
19100,13.16,-6.26,43.28,1.04,8.73,1.90
19135,10.47,-7.95,46.35,1.13,8.73,1.90
19170,6.48,-8.22,46.17,1.22,8.73,1.87
19205,2.50,-8.21,46.49,1.36,8.73,1.85
19240,-0.68,-7.12,45.28,1.51,8.73,1.93
19275,-3.19,-7.82,43.69,1.69,8.73,2.06
19310,-4.96,-8.74,41.17,1.72,8.73,2.28
19346,-4.63,-7.94,37.74,1.70,8.73,2.49
19380,-3.00,-8.62,34.29,1.49,8.73,2.50
19415,6.57,-3.79,28.37,1.36,8.73,2.35
19450,9.58,-2.17,27.79,1.37,8.73,2.07
19485,19.78,-7.04,30.82,1.48,8.73,1.98
19520,10.38,-4.22,31.57,1.57,8.73,2.07
19555,11.66,-7.95,32.96,1.42,8.73,2.31
19590,12.46,-7.69,38.28,1.31,8.73,2.46
19625,12.99,-8.11,43.29,1.31,8.73,2.66
19660,10.11,-9.07,44.72,1.16,8.73,2.80
19695,6.86,-10.35,44.54,0.94,8.73,2.78
19730,2.52,-9.27,45.18,0.67,8.73,2.60
19765,-0.92,-7.60,43.38,0.67,8.73,2.39
19800,-4.02,-6.85,42.22,0.75,8.73,2.29
19836,-4.89,-7.61,39.75,0.69,8.73,2.31
19870,-8.36,-7.17,39.05,0.69,8.73,2.36
19905,-4.61,-8.54,33.67,0.74,8.73,2.55
19940,4.16,-11.33,28.65,0.83,8.73,2.95
19975,8.21,-14.56,25.51,0.56,8.73,3.19
20010,10.39,-12.45,24.83,0.17,8.73,3.05
20045,9.46,-9.73,26.45,0.01,8.73,2.71
20080,11.21,-3.54,30.61,0.30,8.73,2.37
20115,13.97,-4.27,37.06,0.77,8.73,2.29
20150,13.38,-8.03,42.68,1.01,8.73,2.46
20185,9.74,-8.71,44.13,1.01,8.73,2.59
20220,6.43,-7.08,42.88,0.84,8.73,2.74
20255,2.91,-10.56,45.78,0.56,8.73,2.88
20290,0.19,-8.68,41.98,0.22,8.73,2.82
20330,-3.85,-3.79,40.64,0.13,8.73,2.45
20366,-7.66,-0.51,42.60,0.49,8.73,2.18
20400,-4.77,-5.25,38.53,0.81,8.73,2.25
20435,-2.30,-6.69,31.44,1.05,8.73,2.52
20470,5.07,-9.20,27.01,1.00,8.73,2.64
20505,5.49,-10.36,25.05,0.80,8.73,2.60
20540,7.82,-7.79,25.29,0.66,8.73,2.43
20575,10.55,-5.43,27.62,0.60,8.73,2.29
20610,13.75,-6.82,30.64,0.57,8.73,2.22
20645,13.99,-5.77,34.06,0.60,8.73,2.07
20680,13.13,-3.79,37.83,0.79,8.73,2.07
20715,13.55,-6.89,41.55,0.90,8.73,2.19
20750,8.47,-7.96,42.21,0.88,8.73,2.27
20785,4.61,-9.95,50.29,1.02,8.73,2.22
20820,1.21,-7.12,47.33,1.09,8.73,2.01
20855,-2.70,-7.03,44.19,1.11,8.73,2.02
20890,-3.76,-5.24,38.37,1.07,8.73,1.98
20925,-6.23,-5.61,34.84,0.97,8.73,1.93
20960,-5.76,-3.24,32.06,0.89,8.73,1.87
20994,-3.23,-2.24,27.84,0.90,8.73,1.75
21029,0.74,-1.64,26.03,0.99,8.73,1.69
21064,6.04,-1.51,27.27,1.12,8.73,1.75
21099,8.84,-2.82,26.34,1.25,8.73,1.80
21134,12.23,-3.95,29.06,1.46,8.73,1.81
21169,15.07,-5.23,31.84,1.53,8.73,1.89
21204,13.34,-6.67,33.40,1.46,8.73,2.06
21239,11.87,-9.95,37.92,1.35,8.73,2.12
21274,9.56,-9.17,41.96,1.25,8.73,1.94
21309,6.01,-8.40,43.85,1.30,8.73,1.82
21344,3.21,-7.52,43.51,1.43,8.73,1.77
21379,-0.14,-7.93,41.72,1.59,8.73,1.78
21414,-4.02,-8.21,39.86,1.68,8.73,1.93
21449,-4.86,-7.74,36.17,1.56,8.73,2.09
21484,-6.29,-7.23,32.87,1.29,8.73,2.15
21519,-3.85,-5.84,28.88,1.14,8.73,2.14
21554,-2.17,-4.44,25.78,1.01,8.73,2.13
21589,0.61,-5.50,24.14,0.96,8.73,2.20
21624,4.67,-6.92,24.41,0.84,8.73,2.32
21659,10.17,-7.00,25.83,0.66,8.73,2.36
21694,13.29,-8.19,28.61,0.45,8.73,2.34
21729,14.06,-7.48,31.55,0.33,8.73,2.22
21764,12.96,-6.14,35.36,0.36,8.73,2.10
21799,13.54,-5.67,40.33,0.63,8.73,2.24
21834,9.39,-5.79,39.83,0.69,8.73,2.48
21869,5.01,-12.03,40.53,0.76,8.73,2.91
21904,2.59,-7.33,47.10,0.37,8.73,2.88
21939,-0.92,-6.20,44.86,0.26,8.73,2.48
21974,-4.00,-4.04,40.14,0.25,8.73,2.23
22009,-4.96,-2.25,36.18,0.42,8.73,2.00
22044,-7.99,-3.84,33.62,0.65,8.73,1.93
22079,-6.34,-3.70,30.18,0.85,8.73,2.08
22114,-4.54,-5.15,26.94,0.86,8.73,2.12
22149,3.99,-6.84,25.61,0.81,8.73,2.15
22184,9.50,-5.13,25.33,0.79,8.73,2.13
22219,12.09,-3.72,26.17,0.76,8.73,2.06
22255,12.84,-4.53,29.34,0.88,8.73,1.99
22289,14.02,-4.18,32.49,1.14,8.73,2.02
22324,13.20,-6.94,36.10,1.30,8.73,2.14
22364,11.64,-7.45,40.57,1.35,8.73,2.27
22399,8.66,-7.66,41.98,1.29,8.73,2.30
22434,4.06,-9.25,43.23,1.28,8.73,2.21
22469,0.77,-6.71,46.38,1.37,8.73,2.04
22504,-2.04,-9.27,42.38,1.50,8.73,2.06
22539,-5.59,-9.13,40.19,1.49,8.73,2.26
22573,-3.60,-7.24,33.19,1.47,8.73,2.43
22608,-2.26,-7.65,27.73,1.46,8.73,2.54
22644,-4.06,-10.27,25.61,1.40,8.73,2.73
22678,-1.92,-10.28,25.48,1.13,8.73,2.84
22713,1.89,-9.60,24.61,0.87,8.73,2.82
22748,7.74,-7.81,25.79,0.69,8.73,2.63
22783,12.31,-6.55,27.03,0.65,8.73,2.40
22818,14.82,-5.46,30.23,0.69,8.73,2.22
22853,14.14,-6.10,33.75,0.74,8.73,2.11
22888,12.90,-5.48,37.34,0.76,8.73,2.13
22923,10.29,-7.50,40.06,0.80,8.73,2.17
22958,6.90,-8.51,42.49,0.85,8.73,2.21
22993,3.59,-7.18,41.96,0.70,8.73,2.29
23028,0.44,-6.54,41.95,0.52,8.73,2.21
23063,-4.10,-3.25,42.11,0.57,8.73,1.98
23098,-6.01,-3.94,37.91,0.67,8.73,1.81
23133,-6.68,-3.42,33.42,0.68,8.73,1.74
23168,-8.92,-3.83,32.81,0.63,8.73,1.70
23203,-8.16,-2.16,30.32,0.77,8.73,1.78
23238,1.07,-3.53,27.53,0.98,8.73,1.94
23273,6.76,-5.90,25.21,0.98,8.73,2.03
23308,7.97,-9.34,20.81,0.84,8.73,2.09
23343,10.79,-8.98,26.58,0.60,8.73,2.21
23378,13.57,-8.66,30.52,0.50,8.73,2.08
23413,14.86,-5.87,34.05,0.58,8.73,1.93
23448,12.51,-5.11,38.00,0.77,8.73,1.93
23483,10.28,-5.49,39.97,0.86,8.73,2.04
23518,6.60,-8.21,40.46,0.90,8.73,2.25
23553,3.05,-9.03,41.89,0.73,8.73,2.45
23588,-0.29,-8.69,42.16,0.55,8.73,2.45
23623,-3.79,-5.90,40.79,0.49,8.73,2.27
23658,-5.33,-3.68,37.34,0.62,8.73,2.08
23693,-5.41,-3.94,32.28,0.87,8.73,2.03
23728,-5.88,-3.96,29.47,1.02,8.73,2.14
23763,-5.00,-7.23,27.56,1.02,8.73,2.20
23797,0.37,-6.16,25.48,1.01,8.73,2.13
23832,4.70,-4.03,23.73,0.95,8.73,2.03
23867,8.94,-4.21,22.88,0.98,8.73,2.00
23902,10.63,-2.88,25.54,1.09,8.73,1.95
23937,11.89,-4.50,28.46,1.12,8.73,1.97
23972,13.04,-5.48,32.52,1.09,8.73,2.06
24007,12.44,-8.03,36.57,1.05,8.73,2.13
24042,9.62,-10.02,38.93,1.04,8.73,2.08
24077,7.45,-7.35,41.02,1.02,8.73,2.02
24112,4.24,-7.20,42.44,1.00,8.73,2.03
24147,0.22,-7.22,42.35,0.97,8.73,2.01
24182,-3.79,-7.98,40.77,0.97,8.73,2.00
24217,-5.04,-6.26,36.40,1.07,8.73,1.98
24252,-4.70,-6.23,31.98,1.03,8.73,1.96
24287,-7.46,-4.39,30.24,0.93,8.73,1.95
24323,-6.65,-4.59,27.48,0.88,8.73,2.04
24357,-3.07,-4.87,25.35,0.96,8.73,2.08
24397,5.04,-3.19,24.11,1.00,8.73,1.98
24432,10.16,-3.79,23.61,0.97,8.73,1.97
24467,12.78,-5.73,25.73,0.91,8.73,1.99
24502,14.08,-7.49,27.61,0.83,8.73,1.99
24537,13.25,-6.90,30.43,0.87,8.73,1.97
24572,12.62,-6.73,33.75,0.99,8.73,1.90
24607,11.19,-5.00,37.58,0.89,8.73,1.92
24642,8.62,-9.56,40.02,0.99,8.73,1.92
24677,4.60,-8.45,42.15,1.02,8.73,1.90
24712,0.80,-5.83,42.06,1.01,8.73,1.86
24747,-2.00,-4.60,39.00,0.87,8.73,1.93
24782,-4.26,-7.14,34.56,0.82,8.73,1.90
24818,-4.99,-4.60,31.57,0.77,8.73,1.82
24852,-5.94,-2.58,29.35,0.76,8.73,1.65
24887,-5.26,-0.02,26.95,0.72,8.73,1.63
24922,-2.75,-3.63,24.07,0.94,8.73,1.57
24957,1.77,-1.61,23.55,1.07,8.73,1.55
24992,4.93,-0.11,22.36,1.22,8.73,1.61
25027,10.66,-4.14,24.92,1.26,8.73,1.70
25062,14.61,-5.70,27.56,1.12,8.73,1.83
25097,14.92,-8.04,28.74,1.01,8.73,1.91
25132,12.79,-9.62,31.12,0.92,8.73,1.82
25167,12.56,-4.23,35.09,0.94,8.73,1.80
25202,9.19,-7.99,37.33,0.93,8.73,1.87
25237,6.04,-8.42,39.23,0.99,8.73,1.94
25272,2.75,-6.91,40.79,0.93,8.73,1.93
25307,-0.09,-5.27,38.81,0.84,8.73,2.02
25343,-3.83,-9.20,36.47,0.72,8.73,2.02
25377,-5.15,-5.63,34.13,0.63,8.73,1.96
25412,-6.85,-3.73,32.08,0.46,8.73,1.76
25447,-6.05,0.38,29.81,0.40,8.73,1.62
25482,-5.97,-2.80,24.88,0.54,8.73,1.53
25517,-1.33,-1.91,23.13,0.73,8.73,1.61
25552,5.58,-4.81,21.55,0.77,8.73,1.74
25587,10.18,-5.32,21.50,0.61,8.73,1.86
25622,11.33,-7.95,21.65,0.38,8.73,1.89
25657,11.09,-5.60,23.74,0.44,8.73,1.77
25692,10.82,-3.63,27.84,0.45,8.73,1.57
25727,12.66,-5.40,32.03,0.65,8.73,1.56
25762,12.04,-6.96,36.43,0.91,8.73,1.53
25797,9.56,-3.46,40.13,0.93,8.73,1.53
25833,5.62,-7.18,39.66,1.01,8.73,1.64
25867,1.45,-8.12,40.17,1.02,8.73,1.75
25902,-1.10,-3.50,38.88,0.98,8.73,1.83
25937,-4.05,-7.48,35.45,0.94,8.73,1.88
25972,-4.44,-4.86,32.26,0.95,8.73,1.93
26007,-5.79,-3.06,28.57,0.83,8.73,1.79
26042,-3.62,-1.32,25.12,0.74,8.73,1.80
26077,-2.99,-4.37,21.07,0.95,8.73,1.75
26112,-0.20,-1.62,20.49,0.93,8.73,1.78
26147,3.33,-2.33,20.28,0.87,8.73,1.93
26182,6.81,-6.26,19.87,0.78,8.73,2.05
26217,10.17,-5.61,23.57,0.78,8.73,1.98
26252,12.62,-6.92,25.85,0.56,8.73,1.89
26287,13.92,-6.28,29.16,0.61,8.73,1.83
26323,12.20,-8.20,32.62,0.76,8.73,1.70
26357,11.63,-3.87,37.79,0.72,8.73,1.60
26392,8.54,-7.16,39.07,0.83,8.73,1.62
26432,4.13,-6.12,40.22,0.98,8.73,1.60
26467,0.27,-7.32,40.31,1.06,8.73,1.69
26502,-2.40,-5.93,37.46,1.19,8.73,1.72
26537,-5.41,-4.19,35.15,1.07,8.73,1.78
26573,-4.71,-4.69,30.03,1.10,8.73,1.87
26607,-5.54,-6.58,25.38,1.05,8.73,1.80
26642,-4.55,-0.38,24.14,0.99,8.73,1.78
26677,-3.46,-3.17,20.93,1.03,8.73,1.72
26712,1.87,-0.21,20.76,1.09,8.73,1.62
26747,5.15,0.99,20.09,1.19,8.73,1.52
26782,7.54,-1.53,21.31,1.37,8.73,1.55
26817,10.53,-1.93,24.11,1.41,8.73,1.69
26852,12.84,-6.73,26.48,1.34,8.73,1.86
26887,13.28,-9.12,29.44,1.18,8.73,1.88
26922,13.03,-5.33,34.28,1.04,8.73,1.77
26957,9.56,-6.45,36.31,0.90,8.73,1.69
26992,7.09,-7.22,38.61,1.06,8.73,1.54
27027,3.78,-5.49,40.93,1.18,8.73,1.45
27062,0.56,-5.00,39.67,1.29,8.73,1.53
27097,-3.91,-8.30,36.79,1.41,8.73,1.62
27132,-6.23,-4.36,35.47,1.44,8.73,1.71
27167,-6.35,-6.24,30.94,1.39,8.73,1.88
27202,-5.98,-6.06,26.84,1.34,8.73,2.00
27237,-4.30,-4.14,23.96,1.28,8.73,2.04
27272,-3.09,-6.06,21.25,1.13,8.73,2.05
27307,2.13,-5.38,20.47,1.13,8.73,2.13
27342,5.35,-2.60,20.59,1.11,8.73,1.93
27377,9.06,-2.90,21.65,1.11,8.73,1.97
27412,11.10,-5.17,24.09,1.24,8.73,1.98
27447,14.02,-4.20,27.69,1.23,8.73,2.00
27482,13.67,-6.55,31.04,1.15,8.73,2.08
27517,11.65,-10.72,33.07,1.06,8.73,2.03
27552,9.98,-5.81,36.40,0.96,8.73,1.90
27587,6.20,-6.94,37.10,0.93,8.73,1.76
27622,3.27,-6.81,38.50,0.99,8.73,1.68
27657,0.20,-5.19,38.59,1.09,8.73,1.60
27692,-3.42,-6.48,37.11,1.22,8.73,1.64
27727,-6.08,-5.47,35.13,1.12,8.73,1.74
27762,-6.02,-5.33,30.84,1.02,8.73,1.83
27797,-6.46,-4.34,26.19,0.96,8.73,1.70
27833,-4.16,-1.19,23.66,0.84,8.73,1.60
27867,-2.68,-0.80,20.95,0.96,8.73,1.46
27902,0.80,1.84,20.52,1.05,8.73,1.30
27937,4.46,1.61,20.82,1.24,8.73,1.29
27972,6.26,-0.10,21.99,1.41,8.73,1.52
28007,11.99,-6.05,23.13,1.39,8.73,1.73
28042,14.64,-8.80,26.60,1.21,8.73,1.84
28077,13.61,-6.75,28.35,0.99,8.73,1.77
28112,11.99,-7.23,29.73,0.95,8.73,1.76
28147,11.39,-6.80,33.06,0.93,8.73,1.69
28182,8.26,-7.35,35.88,0.96,8.73,1.70
28217,4.81,-6.96,37.68,0.94,8.73,1.76
28252,1.05,-7.23,38.36,0.98,8.73,1.88
28287,-2.21,-6.99,36.33,0.98,8.73,1.93
28323,-4.25,-5.25,34.04,0.92,8.73,1.92
28357,-5.35,-5.10,30.81,1.01,8.73,1.97
28392,-5.99,-5.22,26.82,1.03,8.73,1.94
28427,-4.25,-5.23,23.34,1.03,8.73,2.02
28467,-3.95,-6.08,19.76,0.98,8.73,2.08
28502,-0.41,-4.50,18.96,0.90,8.73,2.09
28537,2.38,-5.40,18.12,0.81,8.73,2.12
28572,7.60,-5.03,18.30,0.76,8.73,2.05
28607,10.75,-4.30,20.47,0.73,8.73,1.93
28642,12.37,-4.36,22.81,0.78,8.73,1.86
28677,12.43,-4.59,25.52,0.78,8.73,1.79
28712,12.08,-4.37,28.51,0.84,8.73,1.79
28747,11.02,-5.76,31.76,0.90,8.73,1.87
28782,9.70,-6.44,35.25,0.97,8.73,1.92
28817,5.29,-6.79,36.39,0.90,8.73,1.91
28852,2.46,-7.09,38.19,0.78,8.73,1.93
28886,0.02,-5.41,36.32,0.74,8.73,1.87
28921,-3.30,-5.73,34.88,0.83,8.73,1.83
28956,-5.37,-4.24,32.21,0.79,8.73,1.79
28991,-6.27,-3.62,28.59,0.82,8.73,1.75
29026,-5.11,-2.76,24.95,0.83,8.73,1.69
29061,-3.09,-2.98,21.23,0.86,8.73,1.64
29096,-0.46,-0.68,19.13,0.88,8.73,1.53
29131,3.96,-1.48,18.21,0.97,8.73,1.54
29166,6.59,-1.66,17.95,1.02,8.73,1.54
29201,7.69,-3.62,18.08,1.05,8.73,1.62
29236,10.19,-4.00,21.12,0.93,8.73,1.73
29271,12.14,-7.40,23.13,0.82,8.73,1.76
29306,12.52,-6.96,27.45,0.64,8.73,1.67
29341,12.87,-5.95,30.84,0.54,8.73,1.57
29376,10.42,-5.38,32.59,0.62,8.73,1.55
29411,9.67,-3.96,36.33,0.77,8.73,1.62
29446,4.81,-7.06,33.27,0.92,8.73,1.82
29481,0.83,-7.02,38.73,0.88,8.73,1.85
29516,-1.13,-6.75,34.78,0.82,8.73,1.87
29551,-3.84,-5.13,32.90,0.88,8.73,1.83
29586,-6.51,-4.02,30.66,0.89,8.73,1.77
29621,-4.11,-4.91,26.13,0.92,8.73,1.75
29656,-6.79,-3.92,24.39,0.89,8.73,1.76
29691,-4.25,-1.80,21.94,0.91,8.73,1.76
29726,0.39,-4.13,19.09,0.90,8.73,1.72
29761,3.80,-1.80,17.32,0.92,8.73,1.65
29796,5.85,-1.27,17.24,1.01,8.73,1.60
29831,6.92,-0.70,17.88,1.04,8.73,1.67
29866,9.69,-4.21,20.51,1.11,8.73,1.74
29901,12.29,-4.55,23.19,1.12,8.73,1.81
29936,11.68,-5.48,26.38,1.12,8.73,1.91
29971,12.22,-5.53,31.01,1.12,8.73,1.99
30006,10.11,-7.81,33.79,1.09,8.73,2.07
30041,8.61,-7.11,36.56,1.03,8.73,2.10
30076,4.66,-7.86,37.36,0.97,8.73,2.10
30111,0.60,-6.07,37.75,0.94,8.73,2.05
30147,-2.01,-7.10,35.07,0.96,8.73,1.98
30181,-4.87,-4.66,32.82,0.98,8.73,1.95
30216,-5.31,-4.90,28.65,0.99,8.73,1.93
30251,-6.44,-5.66,24.91,0.95,8.73,1.94
30286,-4.42,-5.49,21.49,0.83,8.73,1.93
30321,-4.34,-2.63,19.14,0.79,8.73,1.96
30356,-0.95,-5.91,16.98,0.79,8.73,2.09
30391,2.74,-5.74,16.46,0.65,8.73,2.24
30426,5.67,-5.63,16.86,0.54,8.73,2.30
30461,9.42,-4.80,18.52,0.44,8.73,2.24
30501,9.67,-4.67,20.80,0.55,8.73,1.94
30536,12.26,-2.14,24.59,0.72,8.73,1.84
30571,12.89,-4.45,28.12,0.88,8.73,1.91
30606,11.65,-7.22,31.94,0.95,8.73,1.93
30641,8.63,-5.42,35.15,0.86,8.73,1.95
30676,6.04,-6.88,35.80,0.83,8.73,1.96
30711,3.03,-6.77,36.90,0.80,8.73,1.94
30746,-0.19,-5.97,36.97,0.89,8.73,1.86
30782,-3.01,-5.60,35.24,0.88,8.73,1.80
30817,-5.17,-4.39,32.94,0.99,8.73,1.80
30851,-6.09,-4.69,28.47,1.00,8.73,1.84
30886,-6.06,-4.84,24.35,0.95,8.73,1.80
30921,-4.02,-3.04,21.85,0.92,8.73,1.81
30956,-3.54,-2.17,19.19,0.98,8.73,1.79
30991,0.78,-1.76,19.25,0.99,8.73,1.74
31026,3.91,-1.26,18.87,1.04,8.73,1.73
31061,5.94,-1.10,18.49,1.20,8.73,1.69
31096,8.95,-1.14,21.35,1.34,8.73,1.73
31131,12.63,-3.68,23.97,1.39,8.73,1.84
31166,12.59,-5.69,27.74,1.45,8.73,1.98
31202,13.07,-7.17,30.80,1.34,8.73,2.05
31236,11.80,-8.38,33.67,1.21,8.73,2.05
31271,8.76,-6.78,36.52,1.10,8.73,1.98
31306,6.02,-7.36,36.52,1.08,8.73,1.91
31341,1.72,-6.34,37.62,1.15,8.73,1.80
31376,-1.09,-7.24,35.41,1.23,8.73,1.77
31411,-3.31,-4.03,33.80,1.37,8.73,1.75
31446,-5.32,-6.64,30.21,1.59,8.73,1.84
31481,-6.51,-6.62,26.49,1.54,8.73,1.98
31516,-6.67,-7.35,24.71,1.32,8.73,2.09
31551,-5.86,-5.23,21.78,1.21,8.73,2.19
31586,-3.09,-6.37,20.45,1.07,8.73,2.10
31621,0.95,-5.02,18.68,1.00,8.73,2.09
31656,5.84,-3.70,19.43,0.97,8.73,2.08
31691,9.49,-3.96,19.88,1.01,8.73,2.03
31726,10.81,-2.95,22.43,1.06,8.73,1.97
31762,12.22,-5.17,25.52,1.16,8.73,2.05
31796,13.44,-5.63,29.78,1.24,8.73,2.10
31831,12.64,-6.54,33.75,1.19,8.73,2.26
31866,9.40,-8.35,34.88,1.19,8.73,2.38
31901,5.78,-6.92,36.51,0.99,8.73,2.39
31936,3.73,-7.43,36.94,0.89,8.73,2.24
31971,0.38,-5.84,36.71,0.94,8.73,2.03
32006,-3.64,-5.96,37.19,1.09,8.73,1.92
32041,-5.50,-5.76,34.61,1.11,8.73,1.93
32076,-6.94,-5.95,31.21,1.14,8.73,2.02
32111,-6.71,-6.98,26.55,1.12,8.73,2.00
32146,-4.41,-2.63,23.88,0.96,8.73,1.96
32181,-2.91,-5.01,20.59,0.99,8.73,1.92
32216,1.51,-1.87,19.55,0.98,8.73,1.79
32251,4.99,-2.02,19.68,1.00,8.73,1.76
32286,7.80,-2.97,19.96,1.04,8.73,1.79
32321,11.08,-5.26,22.70,1.03,8.73,1.85
32356,13.40,-4.75,25.86,1.09,8.73,1.89
32391,14.28,-4.92,29.40,1.08,8.73,1.88
32426,12.36,-7.53,31.92,1.06,8.73,1.95
32461,11.21,-8.25,34.21,1.09,8.73,1.92
32496,8.31,-6.60,36.18,1.00,8.73,1.83
32536,4.33,-6.98,37.23,1.00,8.73,1.80
32571,0.75,-6.25,37.80,1.05,8.73,1.76
32606,-2.67,-6.03,36.11,1.03,8.73,1.79
32641,-5.58,-7.95,35.50,1.03,8.73,1.92
32676,-4.57,-5.98,30.16,0.94,8.73,1.97
32711,-7.00,-5.10,27.19,0.88,8.73,2.01
32746,-3.15,-3.93,24.05,0.93,8.73,2.07
32781,-0.72,-6.61,19.18,0.95,8.73,2.20
32817,1.64,-6.12,17.40,0.92,8.73,2.32
32851,2.13,-7.46,17.54,0.76,8.73,2.36
32886,5.10,-5.33,17.59,0.63,8.73,2.23
32921,9.13,-5.38,19.89,0.58,8.73,2.07
32956,11.68,-3.68,23.60,0.72,8.73,1.94
32991,12.93,-4.18,26.89,0.80,8.73,1.84
33026,13.67,-4.47,30.18,0.90,8.73,1.87
33061,11.98,-5.53,32.81,0.98,8.73,1.92
33096,8.86,-6.02,35.13,0.95,8.73,1.99
33131,5.60,-7.48,36.31,0.91,8.73,2.06
33166,3.08,-5.71,37.79,0.81,8.73,1.99
33201,-0.42,-5.14,37.51,0.74,8.73,1.95
33237,-3.44,-7.11,34.91,0.73,8.73,1.92
33271,-6.48,-3.59,33.11,0.81,8.73,1.85
33305,-5.70,-3.88,29.07,0.81,8.73,1.84
33341,-5.80,-3.24,24.24,1.01,8.73,1.85
33375,-3.90,-3.40,20.60,1.02,8.73,1.96
33410,0.13,-5.66,18.10,1.08,8.73,2.09
33445,4.00,-6.12,16.84,0.98,8.73,2.14
33480,5.67,-5.00,17.24,0.92,8.73,2.11
33515,8.07,-4.70,18.45,0.88,8.73,2.04
33550,9.95,-2.63,20.92,0.98,8.73,1.99
33585,12.19,-3.81,23.97,1.07,8.73,2.00
33620,12.01,-6.49,26.37,1.21,8.73,2.08
33655,12.07,-6.51,31.11,1.10,8.73,2.14
33690,11.54,-8.74,34.63,1.07,8.73,2.17
33725,7.98,-8.15,35.57,0.91,8.73,2.08
33760,4.75,-7.96,38.27,0.90,8.73,1.91
33795,1.47,-5.35,36.92,0.97,8.73,1.77
33831,-2.34,-7.05,34.93,1.10,8.73,1.70
33866,-4.50,-4.89,33.17,1.11,8.73,1.72
33900,-5.37,-4.80,30.24,1.11,8.73,1.81
33935,-6.21,-4.22,25.97,1.03,8.73,1.79
33970,-5.46,-4.25,22.48,0.99,8.73,1.78
34005,-2.97,-2.09,19.09,0.98,8.73,1.76
34040,-0.40,-1.89,17.78,1.01,8.73,1.71
34075,2.44,-0.80,18.08,1.08,8.73,1.59
34110,4.86,0.02,16.87,1.25,8.73,1.46
34145,4.84,1.65,18.10,1.43,8.73,1.58
34180,10.30,-3.07,23.26,1.73,8.73,1.68
34215,12.86,-4.64,26.00,1.73,8.73,1.94
34250,13.02,-5.26,30.02,1.65,8.73,2.22
34285,12.07,-10.92,34.05,1.51,8.73,2.36
34320,9.53,-8.91,36.86,1.18,8.73,2.17
34355,6.14,-8.36,36.60,1.06,8.73,1.96
34390,2.28,-7.25,37.57,1.09,8.73,1.73
34425,0.15,-6.94,36.36,1.18,8.73,1.66
34460,-3.24,-7.13,34.31,1.30,8.73,1.69
34495,-5.74,-6.24,31.48,1.15,8.73,1.78
34530,-5.70,-6.47,27.58,1.07,8.73,1.80
34570,-6.49,-3.99,24.13,1.00,8.73,1.74
34605,-5.42,-2.76,21.14,0.99,8.73,1.71
34640,-1.68,-1.61,19.56,1.06,8.73,1.63
34675,-0.54,-1.09,18.71,1.11,8.73,1.46
34710,4.50,0.01,20.01,1.29,8.73,1.44
34745,6.88,-0.33,19.40,1.46,8.73,1.50
34780,9.59,-4.25,22.32,1.62,8.73,1.72
34815,13.19,-6.51,26.48,1.56,8.73,1.94
34850,13.17,-7.85,29.70,1.45,8.73,2.10
34885,12.12,-9.08,32.63,1.31,8.73,2.22
34920,10.58,-8.04,35.74,1.18,8.73,2.27
34955,6.11,-9.63,36.34,1.02,8.73,2.25
34990,3.65,-9.46,38.48,0.94,8.73,2.20
35025,-0.07,-7.42,38.16,0.92,8.73,2.10
35060,-3.13,-9.11,35.06,0.86,8.73,2.03
35095,-5.46,-6.35,33.57,0.78,8.73,1.97
35130,-6.02,-6.02,29.56,0.65,8.73,1.90
35165,-6.03,-3.70,26.62,0.59,8.73,1.76
35200,-4.68,-2.01,23.35,0.67,8.73,1.65
35235,-3.05,-1.14,20.09,0.81,8.73,1.55
35270,1.26,-1.12,19.42,0.94,8.73,1.53
35305,4.04,-2.39,18.88,1.08,8.73,1.53
35341,5.49,-0.60,22.18,1.27,8.73,1.60
35375,11.72,-4.63,24.62,1.36,8.73,1.73
35410,15.02,-6.00,27.88,1.47,8.73,1.85
35445,14.18,-6.27,29.62,1.47,8.73,2.05
35480,11.62,-8.05,31.23,1.44,8.73,2.32
35515,10.88,-8.37,34.42,1.32,8.73,2.60
35550,8.26,-12.00,36.66,1.13,8.73,2.83
35585,3.49,-12.12,38.62,0.78,8.73,2.92
35620,0.84,-8.48,40.16,0.44,8.73,2.82
35655,-2.94,-9.12,36.39,0.27,8.73,2.50
35690,-5.00,-6.56,34.31,0.29,8.73,2.23
35725,-4.37,-3.11,29.45,0.30,8.73,1.95
35760,-5.88,-3.40,25.79,0.34,8.73,1.75
35795,-7.59,-3.85,23.95,0.46,8.73,1.59
35831,-0.69,-2.38,22.91,0.55,8.73,1.57
35865,0.18,-0.57,20.09,0.65,8.73,1.64
35900,6.34,-3.60,21.66,0.70,8.73,1.79
35935,11.70,-8.24,20.84,0.74,8.73,1.74
35970,12.45,-6.91,24.08,0.78,8.73,1.73
36005,13.49,-7.42,24.13,0.72,8.73,1.65
36040,11.51,-7.16,27.50,0.69,8.73,1.63
36075,11.39,-7.13,31.56,0.77,8.73,1.55
36110,11.39,-6.33,34.61,0.87,8.73,1.59
36145,7.80,-7.41,35.43,0.95,8.73,1.76
36180,4.44,-9.35,36.55,0.86,8.73,2.07
36215,0.77,-10.09,36.09,0.53,8.73,2.38
36250,-2.84,-8.26,34.59,0.14,8.73,2.41
36285,-4.40,-5.82,32.90,-0.06,8.73,2.19
36321,-6.56,-1.20,30.96,-0.04,8.73,1.83
36355,-8.10,-1.24,29.85,0.24,8.73,1.62
36390,-5.90,-1.23,26.13,0.44,8.73,1.50
36425,-4.20,-1.08,22.82,0.62,8.73,1.36
36460,1.11,2.36,21.27,0.87,8.73,1.18
36495,3.37,1.15,20.58,1.19,8.73,1.09
36530,7.87,2.59,20.13,1.44,8.73,1.20
36565,10.13,-2.82,22.59,1.77,8.73,1.40
36605,12.67,-3.90,26.73,1.86,8.73,1.79
36640,14.02,-6.56,30.18,1.92,8.73,2.21
36675,13.20,-11.90,32.93,1.96,8.73,2.56
36710,10.20,-9.79,36.86,1.70,8.73,2.84
36745,7.40,-11.75,38.23,1.32,8.73,3.01
36780,4.07,-10.99,40.14,0.82,8.73,3.05
36815,-0.61,-12.87,40.29,0.42,8.73,2.92
36851,-3.43,-9.65,36.36,0.32,8.73,2.62
36885,-4.79,-5.93,34.99,0.15,8.73,2.31
36920,-7.49,-6.17,31.21,0.16,8.73,2.07
36955,-6.16,-4.81,28.47,0.20,8.73,1.95
36990,-4.08,-4.71,23.41,0.42,8.73,1.78
37025,-0.63,0.64,20.60,0.49,8.73,1.42
37060,4.65,0.26,19.99,0.65,8.73,1.13
37095,6.23,-0.17,18.15,0.91,8.73,1.08
37130,9.28,-0.68,19.14,1.25,8.73,1.06
37165,12.62,0.29,23.50,1.51,8.73,1.13
37200,14.68,-2.34,25.28,1.86,8.73,1.34
37235,12.86,-5.62,28.97,1.99,8.73,1.60
37270,12.99,-7.67,31.59,1.83,8.73,1.83
37305,9.75,-8.57,32.76,1.69,8.73,1.92
37340,5.04,-8.68,34.40,1.55,8.73,1.84
37375,3.46,-8.87,35.53,1.56,8.73,1.78
37410,0.55,-8.43,33.66,1.70,8.73,1.76
37445,-1.96,-6.51,32.82,1.89,8.73,1.76
37480,-6.02,-9.89,30.04,2.01,8.73,1.98
37515,-5.77,-9.47,24.91,1.89,8.73,2.20
37550,-7.69,-8.06,21.18,1.91,8.73,2.42
37585,-6.13,-9.74,19.21,1.74,8.73,2.61
37620,-6.26,-10.30,16.01,1.39,8.73,2.61
37655,-3.04,-7.40,15.36,1.06,8.73,2.40
37690,2.74,-3.68,14.60,0.93,8.73,2.06
37725,6.41,0.36,15.09,1.03,8.73,1.68
37760,8.72,-0.03,13.86,1.23,8.73,1.50
37795,10.61,-1.05,16.70,1.37,8.73,1.53
37830,11.91,-4.27,19.23,1.39,8.73,1.62
37865,12.13,-6.90,22.09,1.17,8.73,1.69
37900,12.06,-8.72,25.30,0.91,8.73,1.58
37935,11.04,-6.48,28.70,0.71,8.73,1.35
37970,8.89,-4.60,31.15,0.66,8.73,1.06
38005,5.56,-3.39,32.21,0.82,8.73,0.99
38040,2.81,-5.25,34.37,0.99,8.73,1.16
38075,0.02,-5.95,34.31,0.95,8.73,1.45
38110,-2.96,-4.80,33.10,0.84,8.73,1.62
38145,-5.04,-4.14,29.82,0.71,8.73,1.62
38180,-4.82,-1.92,25.63,0.69,8.73,1.54
38215,-7.06,-1.83,22.06,0.71,8.73,1.46
38250,-5.57,-2.03,19.53,0.71,8.73,1.37
38285,-3.24,-0.45,16.99,0.72,8.73,1.24
38321,-2.27,1.59,15.76,0.77,8.73,1.00
38355,1.34,1.99,14.61,0.95,8.73,0.89
38390,4.55,1.91,15.32,1.18,8.73,0.93
38425,7.68,-2.13,14.60,1.30,8.73,1.16
38460,10.95,-3.70,16.66,1.23,8.73,1.41
38495,12.03,-5.39,19.01,1.04,8.73,1.57
38530,11.96,-6.23,22.38,0.91,8.73,1.60
38565,12.37,-5.58,26.31,0.88,8.73,1.59
38600,11.65,-5.41,29.71,0.90,8.73,1.56
38640,8.23,-6.21,32.30,1.00,8.73,1.70
38675,4.24,-6.96,31.72,1.02,8.73,1.82
38710,2.04,-6.35,33.06,0.94,8.73,1.84
38745,-0.72,-6.52,33.53,0.91,8.73,1.80
38780,-3.85,-5.69,31.86,0.95,8.73,1.73
38815,-4.94,-5.06,28.01,0.96,8.73,1.72
38850,-6.14,-4.47,24.14,0.88,8.73,1.70
38885,-6.93,-3.42,20.56,0.73,8.73,1.62
38920,-5.52,-1.40,17.83,0.65,8.73,1.49
38955,-6.72,-1.08,16.18,0.67,8.73,1.42
38990,-1.13,-2.11,14.72,0.77,8.73,1.50
39025,0.65,-3.73,12.48,0.77,8.73,1.73
39060,4.25,-5.41,12.95,0.70,8.73,1.82
39095,7.25,-5.72,14.05,0.59,8.73,1.84
39130,10.24,-1.87,16.12,0.61,8.73,1.72
39165,12.03,-2.60,18.70,0.82,8.73,1.60
39200,11.42,-3.73,21.78,0.97,8.73,1.60
39235,12.12,-4.55,24.72,1.00,8.73,1.63
39271,11.12,-6.37,27.91,0.97,8.73,1.64
39305,8.42,-5.69,30.23,0.93,8.73,1.60
39340,5.69,-5.99,31.20,0.91,8.73,1.48
39375,3.20,-5.82,31.63,1.02,8.73,1.39
39410,0.29,-5.32,31.32,1.13,8.73,1.44
39445,-2.30,-4.41,30.12,1.18,8.73,1.47
39480,-5.23,-4.89,29.23,1.28,8.73,1.53
39515,-6.41,-4.62,26.23,1.37,8.73,1.64
39550,-7.65,-5.30,23.41,1.44,8.73,1.77
39585,-7.97,-4.73,20.75,1.43,8.73,1.91
39620,-6.69,-4.44,17.36,1.33,8.73,2.00
39655,-3.53,-3.50,15.35,1.17,8.73,1.90
39690,0.07,0.20,13.64,1.11,8.73,1.62
39725,4.14,2.15,14.38,1.21,8.73,1.30
39760,6.51,3.61,14.70,1.45,8.73,1.18
39795,8.36,0.95,15.72,1.68,8.73,1.26
39831,10.08,-2.81,17.66,1.68,8.73,1.52
39865,11.93,-5.80,18.97,1.51,8.73,1.73
39900,12.09,-7.35,22.28,1.29,8.73,1.84
39934,11.56,-6.86,25.60,1.14,8.73,1.84
39969,10.93,-6.71,28.54,0.99,8.73,1.81
40004,7.35,-6.21,30.09,0.93,8.73,1.73
40039,4.37,-5.95,30.18,0.88,8.73,1.65
40074,1.76,-5.89,30.67,0.86,8.73,1.63
40109,-1.08,-5.17,30.67,0.88,8.73,1.65
40144,-3.54,-5.53,29.03,0.80,8.73,1.71
40179,-5.33,-5.37,26.37,0.67,8.73,1.72
40214,-5.57,-4.02,23.06,0.55,8.73,1.67
40249,-7.42,-2.34,21.06,0.44,8.73,1.57
40284,-6.77,-1.47,18.82,0.49,8.73,1.50
40320,-6.39,-0.52,16.02,0.60,8.73,1.50
40354,-3.06,-1.96,14.59,0.71,8.73,1.56
40389,-0.37,-3.09,12.81,0.74,8.73,1.67
40424,4.15,-2.38,12.70,0.69,8.73,1.69
40459,7.09,-4.23,12.55,0.67,8.73,1.63
40494,10.35,-3.94,14.95,0.65,8.73,1.58
40529,12.14,-5.51,16.97,0.62,8.73,1.50
40564,12.37,-6.18,18.31,0.47,8.73,1.43
40599,12.28,-5.04,21.10,0.42,8.71,1.31
40634,11.57,-4.32,23.52,0.45,8.73,1.21
40674,9.61,-4.46,27.24,0.53,8.73,1.09
40709,8.32,-3.78,29.87,0.70,8.73,1.05
40744,4.82,-4.33,29.85,0.83,8.73,1.19
40779,1.64,-5.50,30.61,0.83,8.73,1.44
40815,-1.08,-6.00,30.07,0.72,8.73,1.59
40849,-3.66,-4.61,29.13,0.62,8.73,1.63
40884,-6.08,-3.01,27.35,0.53,8.73,1.60
40919,-6.60,-2.20,24.31,0.51,8.73,1.53
40954,-7.35,-0.85,21.52,0.61,8.73,1.47
40989,-6.37,-0.06,18.61,0.74,8.73,1.46
41024,-5.09,-1.63,14.71,0.85,8.73,1.54
41059,-0.29,-3.15,12.88,0.89,8.73,1.63
41094,2.06,-1.92,11.16,0.87,8.68,1.70
41129,3.65,-2.57,11.64,0.82,8.65,1.65
41164,5.43,-3.14,10.80,0.79,8.66,1.62
41199,7.71,-3.71,12.46,0.73,8.69,1.68
41234,10.10,-5.31,14.99,0.52,8.68,1.73
41269,11.10,-6.44,17.73,0.38,8.65,1.66
41304,11.01,-5.05,20.77,0.32,8.61,1.53
41340,11.51,-3.56,23.53,0.39,8.61,1.45
41374,10.20,-3.97,25.49,0.54,8.62,1.48
41409,9.17,-4.39,28.65,0.61,8.67,1.54
41444,5.76,-5.60,29.53,0.63,8.71,1.58
41479,2.82,-5.48,30.77,0.60,8.73,1.53
41514,-0.39,-5.78,30.78,0.61,8.73,1.51
41549,-3.29,-4.68,29.34,0.58,8.73,1.46
41584,-5.69,-4.87,27.84,0.49,8.73,1.43
41619,-4.32,-2.86,24.20,0.42,8.73,1.36
41654,-8.26,-2.35,23.03,0.29,8.73,1.22
41689,-8.11,1.26,21.87,0.30,8.73,1.04
41724,-4.91,1.80,17.85,0.50,8.73,0.96
41759,-1.62,3.46,15.49,0.69,8.73,0.82
41794,2.06,2.10,12.84,0.94,8.73,0.85
41829,3.66,0.62,12.52,1.12,8.73,1.02
41864,5.82,-0.96,12.04,1.24,8.73,1.16
41899,8.55,-1.78,12.53,1.34,8.73,1.30
41934,10.57,-3.39,15.23,1.42,8.73,1.47
41969,12.28,-3.43,17.74,1.45,8.73,1.66
42004,11.58,-2.70,21.18,1.50,8.73,1.91
42039,10.98,-6.64,25.26,1.54,8.73,2.22
42074,9.91,-8.48,28.75,1.42,8.73,2.51
42109,7.71,-10.27,31.61,1.22,8.73,2.85
42144,5.58,-10.81,32.62,0.87,8.73,3.02
42179,1.35,-11.81,34.28,0.41,8.73,3.05
42214,-1.91,-9.30,34.58,-0.05,8.73,2.89
42249,-4.57,-6.61,33.56,-0.21,8.73,2.55
42284,-6.36,-3.02,30.14,-0.22,8.73,2.14
42319,-6.68,-2.88,25.82,-0.09,8.73,1.80
42354,-6.25,-0.56,22.93,0.06,8.73,1.55
42389,-6.36,-0.54,19.68,0.21,8.73,1.30
42424,-2.89,0.27,17.42,0.36,8.73,1.06
42460,2.58,2.45,15.93,0.56,8.73,0.81
42494,3.34,0.75,15.62,0.81,8.73,0.85
42529,7.21,-3.79,15.72,0.90,8.73,1.12
42564,10.29,-9.30,16.52,0.59,8.73,1.48
42599,11.65,-10.06,20.32,0.14,8.73,1.55
42634,12.05,-8.38,24.06,-0.08,8.73,1.32
42669,12.05,-6.19,25.90,0.02,8.73,1.07
42709,9.62,-2.72,28.35,0.47,8.73,1.11
42744,8.59,-3.79,30.30,0.85,8.73,1.52
42779,5.63,-7.31,30.62,0.91,8.73,2.09
42815,3.23,-8.73,32.27,0.67,8.73,2.29
42849,-0.06,-8.44,32.35,0.39,8.73,2.38
42884,-2.99,-7.13,30.32,0.01,8.73,2.33
42919,-5.03,-4.70,27.87,-0.20,8.73,2.07
42954,-7.40,-3.33,25.30,-0.32,8.73,1.78
42989,-7.58,0.80,23.66,-0.45,8.73,1.39
43024,-6.37,2.93,21.10,-0.22,8.73,1.13
43059,-5.97,1.01,17.02,0.12,8.73,1.03
43094,-4.19,1.11,15.44,0.40,8.73,0.98
43129,1.06,0.90,14.45,0.63,8.73,1.03
43164,5.08,-1.15,13.96,0.79,8.73,1.13
43199,7.42,-1.20,14.47,0.91,8.73,1.18
43234,9.56,-1.78,17.34,1.05,8.73,1.23
43269,11.85,-3.31,18.85,1.15,8.73,1.33
43304,12.87,-4.59,21.51,1.20,8.73,1.43
43340,13.12,-6.05,23.86,1.23,8.73,1.53
43374,11.79,-6.68,26.37,1.20,8.73,1.61
43409,9.35,-6.81,28.64,1.15,8.73,1.68
43444,7.17,-7.61,31.00,1.07,8.73,1.67
43479,3.57,-7.58,32.19,1.06,8.73,1.69
43514,0.22,-6.99,30.85,0.99,8.73,1.72
43550,-2.72,-6.66,29.25,0.93,8.73,1.70
43584,-4.76,-6.02,26.90,0.80,8.73,1.74
43619,-6.63,-6.20,24.52,0.67,8.73,1.74
43654,-7.07,-4.93,21.95,0.53,8.73,1.66
43689,-8.44,-2.51,19.72,0.44,8.73,1.52
43724,-7.34,-1.32,17.73,0.44,8.73,1.37
43759,-6.02,-0.10,16.02,0.53,8.73,1.25
43794,-3.49,-0.63,14.59,0.71,8.73,1.33
43829,0.53,-1.96,13.73,0.82,8.73,1.39
43864,5.32,-2.04,13.89,0.93,8.73,1.43
43899,9.40,-3.25,14.38,1.06,8.73,1.41
43934,11.52,-2.15,16.50,1.16,8.73,1.43
43969,11.78,-3.06,18.92,1.30,8.73,1.50
44004,12.31,-4.88,21.74,1.35,8.73,1.62
44039,12.33,-5.20,24.23,1.38,8.70,1.80
44074,10.71,-6.68,26.21,1.36,8.67,1.98
44109,8.08,-8.92,28.21,1.28,8.69,2.16
44144,5.18,-8.04,29.48,1.12,8.73,2.27
44179,2.99,-8.61,32.30,0.94,8.73,2.28
44214,0.04,-8.11,32.29,0.81,8.73,2.21
44249,-3.16,-6.94,30.83,0.72,8.73,2.10
44284,-5.76,-5.18,28.74,0.76,8.73,1.97
44319,-6.55,-5.45,24.91,0.88,8.73,1.91
44354,-7.59,-5.09,22.76,0.95,8.73,1.91
44389,-6.03,-5.44,19.74,1.00,8.73,1.97
44424,-4.85,-5.93,15.72,0.97,8.73,2.01
44459,-2.08,-4.11,14.58,0.90,8.73,1.94
44494,2.40,-2.33,13.71,0.84,8.73,1.76
44529,6.13,0.89,13.74,0.91,8.73,1.46
44564,8.06,1.21,13.86,1.15,8.73,1.25
44600,10.76,1.19,15.27,1.46,8.73,1.23
44634,11.90,-1.49,16.92,1.60,8.73,1.39
44669,12.39,-3.73,19.01,1.61,8.73,1.60
44704,12.77,-6.21,21.80,1.52,8.73,1.76
44744,10.22,-7.52,25.87,1.36,8.73,1.88
44779,8.55,-7.55,28.37,1.17,8.73,1.84
44815,7.09,-7.01,30.76,1.08,8.73,1.79
44849,3.72,-7.47,31.85,1.07,8.73,1.70
44884,0.93,-7.49,31.56,1.07,8.73,1.74
44919,-1.98,-6.95,31.63,1.04,8.73,1.80
44955,-4.55,-5.59,30.04,1.01,8.73,1.83
44989,-5.75,-5.62,26.52,0.93,8.73,1.84
45024,-5.99,-5.59,22.68,0.85,8.73,1.85
45059,-8.83,-4.50,20.18,0.82,8.73,1.80
45094,-5.09,-3.68,17.81,0.79,8.73,1.76
45129,-3.81,-3.65,14.49,0.78,8.73,1.82
45164,-0.53,-4.39,12.57,0.76,8.73,1.87
45199,1.64,-4.64,11.78,0.67,8.73,1.87
45235,4.85,-3.99,12.00,0.63,8.73,1.80
45269,8.25,-3.62,13.07,0.60,8.73,1.73
45304,9.35,-3.95,15.05,0.58,8.73,1.68
45339,11.26,-3.73,17.50,0.58,8.73,1.62
45374,12.16,-3.87,21.12,0.65,8.73,1.57
45409,12.42,-4.24,24.48,0.73,8.73,1.58
45444,11.04,-4.62,27.62,0.81,8.73,1.64
45480,9.16,-5.88,29.82,0.85,8.73,1.75
45514,6.21,-5.61,30.96,0.75,8.73,1.82
45549,3.18,-6.77,33.56,0.61,8.73,1.94
45584,-0.17,-6.16,32.84,0.40,8.73,2.07
45619,-3.32,-3.89,31.04,0.15,8.73,2.01
45654,-5.20,-3.83,27.73,-0.09,8.73,1.86
45689,-6.63,-2.49,25.42,-0.12,8.73,1.64
45724,-6.89,-0.04,23.30,-0.01,8.73,1.41
45759,-6.29,1.26,20.49,0.21,8.73,1.29
45794,-4.55,0.61,17.09,0.48,8.73,1.31
45830,-1.42,-0.63,14.72,0.66,8.73,1.38
45864,0.87,-2.42,13.37,0.74,8.73,1.48
45899,4.58,-3.15,13.21,0.75,8.73,1.49
45934,6.36,-1.96,13.82,0.76,8.73,1.51
45969,8.57,-2.54,15.58,0.84,8.73,1.48
46004,11.33,-3.95,18.31,0.90,8.73,1.46
46039,11.96,-4.44,21.78,0.88,8.73,1.45
46074,12.85,-5.21,24.31,0.90,8.73,1.45
46109,11.19,-5.47,27.40,0.86,8.73,1.37
46144,9.13,-4.72,29.83,0.83,8.73,1.20
46179,6.85,-5.72,31.79,0.94,8.73,1.17
46214,3.69,-5.31,33.28,1.09,8.73,1.25
46249,0.66,-5.26,33.44,1.21,8.73,1.43
46284,-1.79,-5.00,31.19,1.26,8.73,1.56
46320,-4.64,-5.63,28.86,1.25,8.73,1.68
46354,-5.79,-4.85,25.20,1.26,8.73,1.76
46389,-6.65,-5.25,21.80,1.27,8.73,1.85
46424,-6.52,-4.66,18.91,1.21,8.73,1.94
46459,-5.76,-4.31,16.41,1.12,8.73,2.00
46494,-4.37,-3.37,14.33,0.99,8.73,1.96
46529,-1.70,-2.61,13.66,0.92,8.73,1.86
46564,1.63,-2.13,13.22,0.92,8.73,1.78
46600,4.57,-1.35,13.23,0.95,8.73,1.73
46634,7.70,-2.07,15.44,1.03,8.73,1.70
46669,10.79,-2.16,17.77,1.09,8.73,1.70
46704,12.15,-3.31,20.65,1.11,8.73,1.73
46739,12.63,-5.47,22.83,1.02,8.73,1.76
46779,11.77,-5.84,26.45,0.90,8.73,1.70
46815,9.86,-6.22,29.31,0.87,8.73,1.62
46849,7.77,-5.39,32.01,0.87,8.73,1.57
46884,4.58,-5.46,32.92,0.86,8.73,1.65
46919,1.01,-5.49,33.15,0.85,8.73,1.69
46954,-1.63,-4.97,31.14,0.82,8.73,1.69
46989,-4.32,-5.02,29.81,0.83,8.73,1.66
47024,-5.93,-4.13,27.75,0.84,8.73,1.68
47059,-7.63,-3.84,25.28,0.92,8.73,1.71
47094,-7.59,-3.22,21.78,0.97,8.73,1.77
47129,-5.94,-3.85,18.94,1.02,8.73,1.88
47164,-5.01,-4.93,15.54,0.97,8.73,2.02
47199,-1.46,-5.73,14.46,0.89,8.73,2.11
47235,1.41,-4.91,13.60,0.77,8.73,2.20
47269,5.41,-5.82,14.04,0.65,8.73,2.16
47304,8.23,-5.14,15.16,0.58,8.73,2.04
47339,10.65,-2.93,17.97,0.64,8.73,1.89
47374,11.91,-3.06,20.83,0.72,8.73,1.79
47409,13.17,-3.95,23.52,0.81,8.73,1.78
47444,12.35,-4.71,26.74,0.88,8.73,1.84
47480,10.91,-5.96,29.72,0.88,8.73,1.90
47514,8.73,-6.17,32.33,0.88,8.73,1.94
47549,5.56,-6.15,32.48,0.80,8.73,1.99
47584,2.21,-6.04,33.33,0.72,8.73,1.98
47619,-1.11,-4.91,33.06,0.70,8.73,1.88
47654,-4.25,-5.07,32.20,0.69,8.73,1.80
47689,-4.63,-3.37,28.96,0.67,8.73,1.74
47724,-6.99,-2.28,26.82,0.72,8.73,1.67
47759,-7.59,-1.47,23.86,0.77,8.73,1.59
47794,-5.29,-1.79,20.51,0.78,8.73,1.53
47830,-4.60,-0.43,17.05,0.80,8.73,1.45
47864,0.31,0.59,16.48,0.87,8.73,1.34
47899,3.08,1.18,14.80,0.97,8.73,1.21
47934,6.14,-0.56,14.98,1.06,8.73,1.23
47969,9.17,-2.67,16.24,1.10,8.73,1.32
48004,10.32,-5.23,19.38,0.93,8.73,1.45
48039,12.48,-7.07,21.11,0.68,8.73,1.47
48074,12.12,-7.36,24.78,0.41,8.73,1.28
48109,11.21,-5.59,28.38,0.36,8.73,1.01
48144,10.08,-3.59,31.19,0.53,8.73,0.84
48179,8.17,-3.07,33.86,0.76,8.73,0.75
48214,4.98,-3.96,34.16,1.06,8.73,0.72
48249,0.52,-3.95,35.27,1.40,8.73,0.83
48284,-1.80,-4.15,33.53,1.66,8.73,0.97
48320,-3.88,-5.04,32.76,1.82,8.73,1.18
48355,-6.69,-6.05,30.83,1.76,8.73,1.48
48390,-6.09,-5.75,26.17,1.60,8.73,1.65
48424,-6.55,-5.02,23.19,1.28,8.73,1.63
48459,-4.02,-0.53,19.26,1.18,8.73,1.55
48495,-0.42,0.29,18.30,1.20,8.73,1.40
48529,2.85,1.27,16.56,1.29,8.73,1.33
48565,6.97,-1.28,16.78,1.40,8.73,1.43
48599,9.57,-1.37,17.30,1.47,8.73,1.57
48634,10.25,-1.92,18.69,1.54,8.73,1.70
48669,11.04,-3.86,21.03,1.55,8.73,1.84
48705,11.98,-3.96,24.20,1.59,8.73,2.02
48740,12.07,-5.80,27.08,1.56,8.73,2.26
48774,11.55,-8.11,30.32,1.38,8.73,2.40
48813,8.01,-7.13,34.42,1.12,8.73,2.47
48848,5.95,-9.28,35.24,0.92,8.73,2.55
48883,2.04,-8.08,35.07,0.67,8.73,2.48
48918,-1.05,-6.59,33.44,0.57,8.73,2.30
48953,-3.78,-6.19,32.75,0.57,8.73,2.16
48988,-5.73,-3.87,30.94,0.68,8.73,2.03
49023,-6.75,-4.36,27.39,0.85,8.73,2.01
49058,-5.54,-4.93,23.73,1.04,8.73,2.12
49093,-4.83,-6.57,19.00,1.06,8.73,2.27
49128,-2.33,-5.77,16.68,0.93,8.73,2.31
49163,1.52,-6.40,14.90,0.81,8.73,2.28
49198,5.49,-4.57,16.77,0.71,8.73,2.08
49233,8.06,-2.59,17.47,0.74,8.73,1.90
49268,9.96,-3.46,18.42,0.83,8.73,1.82
49303,10.62,-5.53,20.72,0.85,8.73,1.77
49338,11.17,-5.79,24.53,0.85,8.73,1.74
49373,12.34,-5.53,28.32,0.88,8.73,1.73
49408,11.88,-5.15,32.27,0.85,8.73,1.66
49443,9.13,-7.10,35.13,0.87,8.73,1.56
49478,5.73,-6.26,35.20,0.94,8.73,1.45
49513,2.06,-5.88,35.73,1.09,8.73,1.42
49548,-0.84,-5.07,35.70,1.20,8.73,1.51
49583,-3.88,-6.24,33.88,1.28,8.73,1.62
49618,-5.93,-5.55,30.63,1.20,8.73,1.71
49654,-5.34,-5.32,26.71,1.11,8.73,1.75
49688,-6.89,-4.55,23.75,0.96,8.73,1.73
49724,-5.62,-0.54,20.83,0.86,8.73,1.64
49758,-2.65,-1.89,18.31,0.89,8.73,1.50
49793,0.72,1.03,18.16,0.97,8.73,1.41
49829,4.47,-0.45,17.13,1.06,8.73,1.43
49863,7.23,-1.98,17.64,1.14,8.73,1.54
49898,9.12,-2.02,19.76,1.18,8.73,1.63
49933,10.93,-3.97,20.94,1.18,8.73,1.73
49968,12.63,-5.00,24.08,1.12,8.73,1.78
50003,11.58,-7.10,28.61,1.04,8.73,1.79
50038,11.99,-6.19,32.66,0.97,8.73,1.72
50073,9.27,-6.68,34.71,0.97,8.73,1.61
50108,5.24,-5.38,34.79,0.98,8.73,1.52
50143,2.33,-6.21,37.94,1.11,8.73,1.48
50178,-0.16,-4.46,35.21,1.20,8.73,1.48
50213,-3.17,-6.54,33.44,1.29,8.73,1.58
50248,-5.11,-5.38,30.52,1.17,8.73,1.71
50283,-6.33,-4.73,26.93,1.12,8.73,1.74
50319,-8.17,-4.69,24.69,1.02,8.73,1.77
50353,-5.85,-3.16,22.62,1.01,8.73,1.85
50388,-3.91,-3.29,18.21,1.02,8.73,1.88
50423,-0.10,-3.82,17.24,0.96,8.73,1.91
50458,4.51,-4.45,17.45,0.88,8.73,1.95
50493,7.99,-4.35,17.65,0.82,8.73,1.95
50528,10.18,-3.05,18.73,0.85,8.73,1.86
50563,11.70,-4.29,20.88,0.89,8.73,1.83
50598,11.41,-3.86,24.51,0.97,8.73,1.82
50633,12.52,-4.70,28.34,1.00,8.73,1.85
50668,11.49,-5.97,31.91,0.97,8.73,1.88
50703,9.57,-6.76,34.96,0.99,8.73,1.85
50738,5.21,-5.78,34.41,0.93,8.73,1.74
50773,2.39,-5.48,35.62,1.02,8.73,1.61
50808,-1.20,-6.92,34.38,1.09,8.73,1.60
50848,-4.21,-6.05,33.11,1.11,8.73,1.66
50883,-5.91,-4.52,31.27,1.09,8.73,1.71
50918,-6.69,-4.93,27.86,1.03,8.73,1.75
50953,-6.28,-2.99,24.57,1.02,8.73,1.77
50988,-5.33,-1.90,21.95,1.09,8.73,1.78
51023,-0.94,-2.83,18.52,1.01,8.73,1.63
51058,3.02,0.16,18.09,1.06,8.73,1.52
51093,5.99,-0.03,18.04,1.14,8.73,1.55
51129,7.13,-1.55,16.32,1.15,8.73,1.59
51163,8.36,-5.66,18.59,1.15,8.73,1.71
51198,11.09,-5.26,21.33,0.96,8.73,1.79
51233,12.42,-5.97,25.67,0.86,8.73,1.78
51268,12.71,-5.39,29.56,0.84,8.73,1.76
51303,11.83,-5.39,32.44,0.90,8.73,1.76
51339,8.92,-6.40,34.17,0.89,8.73,1.75
51373,4.63,-6.24,33.08,0.90,8.73,1.78
51408,2.35,-6.43,35.58,0.91,8.73,1.83
51443,-0.45,-5.95,35.37,0.86,8.73,1.88
51478,-4.09,-5.51,34.60,0.87,8.73,1.88
51513,-5.14,-5.59,30.97,0.84,8.73,1.88
51548,-5.64,-5.45,27.70,0.86,8.73,1.89
51583,-8.85,-4.10,25.28,0.87,8.73,1.89
51618,-4.35,-2.56,22.62,0.86,8.73,1.91
51653,-2.55,-4.46,18.40,0.87,8.73,1.97
51688,0.52,-3.94,16.23,0.80,8.73,2.05
51723,5.17,-4.96,17.56,0.69,8.73,2.09
51757,7.14,-6.00,16.01,0.60,8.73,2.06
51792,10.22,-5.60,19.07,0.48,8.73,1.98
51827,12.04,-5.69,21.74,0.41,8.73,1.83
51862,11.86,-4.47,24.64,0.47,8.73,1.67
51897,12.34,-4.44,28.05,0.57,8.73,1.57
51932,11.41,-3.97,32.05,0.72,8.73,1.55
51967,9.49,-5.43,34.99,0.82,8.73,1.53
52002,5.52,-4.92,35.42,0.87,8.73,1.52
52037,2.47,-5.99,37.68,0.89,8.73,1.60
52071,-0.45,-4.92,36.72,0.79,8.73,1.68
52106,-3.47,-5.21,35.02,0.78,8.73,1.69
52141,-5.20,-3.29,31.92,0.65,8.73,1.67
52176,-6.03,-2.88,28.20,0.59,8.73,1.58
52211,-5.58,-0.27,25.59,0.52,8.73,1.46
52246,-4.94,0.25,22.17,0.72,8.73,1.45
52281,-1.05,-2.18,19.20,0.86,8.73,1.59
52316,2.19,-4.55,17.08,0.93,8.73,1.94
52351,4.66,-6.68,16.31,0.78,8.73,2.23
52385,6.49,-6.60,16.15,0.58,8.73,2.28
52420,8.66,-5.47,18.45,0.50,8.73,2.15
52455,10.91,-4.00,22.16,0.56,8.73,1.99
52490,13.09,-2.99,25.80,0.75,8.73,1.97
52525,12.15,-4.51,29.52,0.90,8.73,2.01
52560,11.96,-6.20,32.84,0.99,8.73,2.13
52595,7.66,-6.55,34.70,0.88,8.73,2.22
52630,5.08,-7.69,34.66,0.79,8.73,2.24
52666,2.47,-7.65,36.30,0.60,8.73,2.21
52700,-1.23,-5.65,35.96,0.53,8.73,2.11
52735,-3.56,-6.00,33.65,0.46,8.73,2.00
52770,-4.72,-3.79,30.44,0.47,8.73,1.88
52805,-4.55,-3.43,25.57,0.54,8.73,1.79
52841,-4.63,-1.99,22.79,0.66,8.73,1.76
52880,-4.19,-2.52,18.47,0.78,8.73,1.85
52916,-2.36,-4.41,16.55,0.82,8.73,1.95
52950,1.14,-5.83,16.04,0.75,8.73,2.00
52985,3.44,-4.21,16.89,0.70,8.73,2.01
53020,7.30,-4.59,17.28,0.72,8.73,1.94
53055,10.64,-3.54,21.05,0.76,8.73,1.86
53090,12.56,-5.09,23.64,0.77,8.73,1.87
53125,12.61,-5.74,26.76,0.79,8.73,1.85
53160,12.40,-6.14,30.30,0.84,8.73,1.90
53195,11.00,-6.64,33.28,0.88,8.73,1.99
53230,8.32,-7.72,35.96,0.91,8.73,2.09
53265,4.46,-7.32,36.89,0.80,8.73,2.13
53300,1.57,-8.41,36.77,0.65,8.73,2.17
53334,-1.93,-5.11,36.27,0.53,8.73,2.05
53369,-3.69,-4.55,32.14,0.57,8.73,1.89
53404,-5.04,-3.51,29.58,0.64,8.73,1.75
53439,-6.94,-3.81,26.81,0.72,8.73,1.69
53474,-4.22,-2.19,23.66,0.76,8.73,1.67
53509,-5.89,-2.84,19.93,0.85,8.73,1.65
53544,-2.11,-2.01,18.47,0.87,8.73,1.65
53579,2.34,-1.96,17.73,0.94,8.73,1.67
53613,4.62,-2.21,16.58,1.02,8.73,1.63
53648,7.98,-2.30,19.07,1.10,8.73,1.66
53683,10.18,-3.15,21.68,1.20,8.73,1.70
53718,12.73,-3.89,23.48,1.34,8.73,1.78
53753,12.43,-4.87,28.09,1.42,8.73,1.96
53788,12.59,-7.22,31.22,1.45,8.73,2.11
53824,9.74,-8.52,34.34,1.29,8.73,2.20
53858,7.47,-8.66,36.35,1.20,8.73,2.19
53893,3.63,-8.65,37.79,1.11,8.73,2.12
53928,0.15,-7.71,36.46,1.12,8.73,2.01
53963,-2.38,-6.43,34.56,1.14,8.73,1.96
53998,-5.93,-6.58,33.92,1.26,8.73,1.98
54033,-6.22,-6.66,30.15,1.33,8.73,2.07
54068,-7.69,-7.81,26.12,1.28,8.73,2.16
54103,-6.11,-6.14,23.69,1.08,8.73,2.19
54138,-3.00,-4.82,19.99,0.98,8.73,2.15
54173,1.07,-3.38,18.94,0.90,8.73,2.02
54208,4.69,-2.33,18.60,0.92,8.73,1.81
54243,6.51,-2.01,17.00,1.00,8.73,1.66
54278,9.57,-0.87,19.46,1.09,8.73,1.64
54314,11.71,-4.38,21.37,1.18,8.73,1.68
54348,12.40,-4.39,23.83,1.15,8.73,1.74
54383,12.56,-6.06,27.26,1.12,8.73,1.79
54418,12.48,-6.08,30.88,1.09,8.73,1.81
54453,9.25,-6.58,32.96,1.01,8.73,1.67
54488,6.09,-6.11,34.01,0.99,8.73,1.47
54523,3.55,-5.62,36.57,1.16,8.73,1.36
54558,0.28,-5.91,35.38,1.35,8.73,1.39
54593,-2.57,-5.06,35.02,1.55,8.73,1.46
54628,-5.97,-6.99,33.56,1.64,8.73,1.66
54663,-6.81,-5.71,29.52,1.71,8.73,1.87
54698,-7.25,-7.37,26.19,1.61,8.73,2.07
54733,-4.66,-6.12,22.77,1.42,8.73,2.15
54768,-3.91,-5.33,19.19,1.22,8.73,2.11
54803,0.24,-2.17,18.34,1.16,8.73,1.92
54838,3.54,-1.57,18.81,1.16,8.73,1.78
54873,6.01,-2.10,18.62,1.24,8.73,1.74
54913,10.20,-2.64,21.26,1.32,8.73,1.83
54948,12.71,-6.56,22.95,1.24,8.73,1.92
54983,12.68,-6.64,26.55,1.09,8.73,1.97
55018,12.57,-6.34,29.04,0.98,8.73,1.98
55053,11.62,-5.07,31.79,0.99,8.73,2.01
55088,8.56,-7.00,34.57,1.00,8.73,2.18
55123,4.84,-7.46,35.48,0.89,8.73,2.34
55158,3.01,-6.97,37.18,0.65,8.73,2.35
55193,-0.74,-6.03,36.09,0.51,8.73,2.21
55228,-3.89,-6.27,35.90,0.52,8.73,2.04
55263,-5.13,-3.78,32.75,0.59,8.73,1.90
55298,-5.48,-4.04,28.70,0.65,8.73,1.82
55333,-5.74,-2.61,25.15,0.66,8.73,1.71
55368,-5.13,-1.08,21.75,0.70,8.73,1.68
55403,-1.58,-2.31,19.19,0.82,8.73,1.66
55438,1.85,-3.71,18.04,0.84,8.73,1.69
55473,5.83,-3.60,18.13,0.83,8.73,1.76
55509,7.93,-3.28,17.54,0.75,8.73,1.80
55543,10.53,-5.25,21.44,0.83,8.73,1.77
55578,12.86,-4.97,24.05,0.74,8.73,1.72
55613,12.43,-5.47,27.80,0.76,8.73,1.70
55648,11.97,-5.57,31.78,0.86,8.73,1.65
55683,10.45,-7.23,35.08,0.89,8.73,1.63
55718,8.19,-5.78,37.68,0.97,8.73,1.60
55753,4.36,-6.30,37.72,1.09,8.73,1.57
55787,0.75,-6.32,39.28,1.23,8.73,1.59
55823,-2.19,-6.84,36.76,1.18,8.73,1.77
55857,-4.64,-6.97,34.11,1.20,8.73,1.90
55892,-5.31,-5.11,29.87,1.09,8.73,1.94
55927,-6.12,-5.73,26.43,1.03,8.73,2.00
55962,-4.19,-4.08,22.79,1.03,8.73,2.01
55997,-2.99,-4.13,19.13,0.97,8.73,2.02
56032,0.57,-2.51,17.82,0.90,8.73,1.88
56067,1.81,-1.55,18.27,0.89,8.73,1.71
56102,4.98,0.36,18.00,1.03,8.73,1.57
56137,8.81,-3.46,19.99,1.11,8.73,1.60
56172,11.65,-3.51,23.93,1.13,8.73,1.70
56207,12.67,-5.67,27.07,0.99,8.73,1.70
56242,12.56,-7.38,29.77,0.85,8.73,1.62
56277,11.58,-5.00,34.32,0.81,8.73,1.42
56313,9.22,-5.11,37.52,0.87,8.73,1.20
56347,5.95,-3.85,38.90,1.07,8.73,1.01
56382,2.96,-3.91,39.44,1.36,8.73,1.00
56417,-1.34,-5.40,37.50,1.58,8.73,1.17
56452,-3.79,-5.42,36.50,1.77,8.73,1.41
56487,-5.74,-6.65,32.06,1.75,8.73,1.67
56523,-5.48,-5.95,28.76,1.66,8.73,1.87
56557,-5.19,-4.23,24.82,1.49,8.73,1.94
56592,-3.81,-3.84,21.71,1.36,8.73,1.99
56627,-1.59,-3.71,20.54,1.32,8.73,1.94
56662,1.16,-2.55,20.15,1.29,8.73,1.90
56697,5.48,-2.70,19.93,1.26,8.73,1.97
56732,9.63,-6.08,21.30,1.26,8.73,2.07
56767,11.61,-5.55,24.80,1.04,8.73,2.15
56802,13.95,-6.64,28.43,0.95,8.73,2.20
56837,13.69,-8.57,31.02,0.95,8.73,2.18
56872,11.36,-5.57,34.59,0.88,8.73,2.19
56907,8.87,-8.91,36.55,0.86,8.73,2.25
56947,5.74,-7.46,38.14,0.72,8.73,2.26
56982,1.44,-8.10,38.74,0.64,8.73,2.20
57017,-1.21,-5.53,36.62,0.56,8.73,2.04
57052,-4.08,-6.00,33.85,0.60,8.73,1.92
57087,-6.26,-4.16,31.73,0.48,8.73,1.78
57122,-6.26,-2.81,28.90,0.44,8.73,1.64
57157,-5.64,-0.46,25.87,0.47,8.73,1.42
57192,-3.85,2.23,22.48,0.60,8.73,1.29
57227,-1.31,-0.00,20.81,0.85,8.73,1.28
57262,2.27,-1.78,20.98,1.02,8.73,1.41
57297,6.39,-2.56,19.89,1.10,8.73,1.53
57333,9.63,-4.35,21.49,1.16,8.73,1.62
57367,11.79,-4.59,24.04,1.08,8.73,1.71
57402,12.70,-6.33,27.48,1.02,8.73,1.74
57437,13.06,-6.84,31.01,1.03,8.73,1.73
57472,11.71,-5.54,35.08,0.99,8.73,1.73
57507,8.81,-8.36,36.39,1.01,8.73,1.66
57542,5.23,-6.64,36.71,1.02,8.73,1.63
57577,2.33,-7.27,37.43,1.03,8.73,1.75
57612,-0.45,-6.19,35.16,0.96,8.73,1.84
57647,-4.66,-9.22,36.47,0.79,8.73,1.94
57682,-4.55,-4.99,32.37,0.83,8.73,1.92
57717,-6.79,-5.33,28.89,0.83,8.73,1.89
57752,-5.49,-6.02,25.71,0.80,8.73,1.88
57787,-5.04,-2.73,21.05,0.85,8.73,1.97
57822,-2.60,-5.47,18.68,0.85,8.73,1.97
57857,1.61,-4.79,19.25,0.80,8.73,1.97
57892,4.47,-3.76,18.35,0.74,8.73,1.95
57927,7.54,-3.89,19.40,0.75,8.73,1.93
57962,10.89,-5.15,23.03,0.71,8.73,1.85
57997,13.19,-5.82,26.24,0.77,8.73,1.81
58032,13.50,-4.80,30.45,0.77,8.73,1.69
58067,12.61,-4.68,33.18,0.82,8.73,1.73
58102,9.48,-6.15,34.97,0.97,8.73,1.76
58137,6.28,-6.69,36.77,0.94,8.73,1.79
58172,3.88,-7.60,39.04,0.97,8.73,1.88
58207,0.58,-5.28,38.81,0.90,8.73,1.91
58242,-2.62,-7.68,35.98,0.88,8.73,1.91
58277,-5.39,-3.68,35.20,0.85,8.73,1.83
58312,-5.01,-4.19,30.06,0.76,8.73,1.79
58347,-6.85,-4.11,26.02,0.76,8.73,1.74
58382,-4.96,-0.20,23.26,0.82,8.73,1.70
58417,-2.60,-3.76,20.15,0.86,8.73,1.71
58452,0.25,-3.36,18.50,0.92,8.73,1.87
58487,4.68,-5.29,18.83,0.85,8.73,2.01
58522,9.07,-7.01,19.45,0.74,8.73,2.07
58557,11.58,-5.64,21.98,0.60,8.73,2.01
58592,13.15,-4.44,23.70,0.67,8.73,1.92
58627,13.04,-4.58,26.93,0.70,8.73,1.84
58662,11.88,-7.29,29.82,0.86,8.73,1.87
58697,11.86,-6.08,35.06,0.83,8.73,1.87
58732,8.86,-7.08,37.52,0.87,8.73,1.93
58767,4.82,-7.53,37.35,0.86,8.73,1.97
58802,1.46,-7.29,37.73,0.83,8.73,2.03
58837,-2.09,-6.04,36.39,0.82,8.73,1.94
58872,-4.40,-6.35,34.02,0.71,8.73,1.90
58907,-5.20,-4.07,31.23,0.77,8.73,1.85
58942,-7.27,-2.45,28.06,0.75,8.73,1.78
58982,-3.92,-0.80,24.23,0.81,8.73,1.75
59017,-1.98,-3.93,19.62,0.85,8.73,1.75
59052,1.88,-2.39,18.15,0.89,8.73,1.76
59087,3.68,-3.47,17.85,0.88,8.73,1.77
59122,6.21,-3.01,18.04,0.85,8.73,1.79
59157,8.36,-5.59,18.27,0.86,8.73,1.82
59192,9.97,-3.31,22.03,0.86,8.73,1.79
59227,12.75,-4.98,25.94,0.93,8.73,1.83
59262,13.04,-4.86,30.07,0.96,8.73,1.86
59297,11.66,-5.86,33.87,0.99,8.73,1.98
59332,9.88,-6.93,36.07,1.03,8.73,2.09
59367,4.87,-7.24,36.10,0.91,8.73,2.16
59402,2.91,-7.35,37.74,0.81,8.73,2.17
59437,-0.47,-5.47,36.37,0.78,8.73,2.09
59472,-3.73,-6.86,34.79,0.85,8.73,1.99
59507,-5.11,-4.72,32.13,0.87,8.73,1.96
59542,-5.78,-4.99,27.59,0.91,8.73,1.95
59577,-5.41,-4.79,23.43,0.93,8.73,1.93
59612,-5.08,-4.31,20.29,0.89,8.73,1.97
59647,-2.23,-3.68,18.66,0.90,8.73,2.01
59682,0.64,-4.41,17.27,0.85,8.73,2.07
59717,4.03,-5.67,17.56,0.79,8.73,1.97
59752,8.67,-3.78,20.27,0.71,8.73,1.95
59787,11.13,-3.19,22.04,0.78,8.73,1.85
59822,12.41,-7.34,24.39,0.78,8.73,1.77
59857,14.11,-6.01,28.68,0.75,8.73,1.70
59892,12.67,-4.24,32.70,0.77,8.73,1.63
59927,10.29,-6.55,34.54,0.83,8.73,1.62
59962,7.98,-4.95,37.11,0.91,8.73,1.57
59997,4.52,-6.12,37.72,0.99,8.73,1.67
60032,0.55,-5.53,38.48,1.08,8.73,1.73
60067,-2.16,-6.39,34.62,1.05,8.73,1.78
60102,-4.47,-4.78,32.71,1.15,8.73,1.80
60137,-5.85,-4.78,29.63,1.19,8.73,1.85
60172,-7.04,-4.19,25.81,1.17,8.73,1.91
60207,-5.73,-5.81,22.24,1.07,8.73,1.97
60242,-4.13,-2.56,19.31,1.02,8.73,1.95
60277,-5.29,-1.76,19.25,1.00,8.73,1.96
60312,1.55,-3.71,19.47,0.99,8.73,1.83
60347,4.89,-1.70,18.34,1.07,8.73,1.83
60383,10.27,-3.69,20.59,1.19,8.73,1.83
60417,12.97,-5.25,23.12,1.07,8.73,1.87
60452,13.01,-5.47,25.94,1.00,8.73,1.91
60487,12.25,-5.84,28.82,0.95,8.73,1.84
60522,12.25,-7.15,32.00,0.89,8.73,1.75
60557,9.51,-5.98,35.06,0.81,8.73,1.58
60592,5.88,-5.50,36.62,0.90,8.73,1.46
60627,3.52,-4.03,37.40,1.04,8.73,1.34
60662,-0.34,-5.89,35.57,1.19,8.73,1.38
60697,-2.61,-5.04,34.08,1.30,8.73,1.47
60732,-5.96,-5.31,33.17,1.32,8.73,1.62
60767,-5.94,-5.25,29.43,1.25,8.73,1.73
60802,-9.16,-5.47,26.80,1.20,8.73,1.79
60838,-6.40,-1.69,24.47,1.16,8.73,1.81
60872,-2.51,-4.38,21.46,1.09,8.73,1.76
60907,3.04,-2.23,20.42,1.17,8.73,1.73
60942,7.08,-1.74,20.71,1.22,8.73,1.68
60977,9.31,-1.86,19.92,1.28,8.73,1.76
61017,11.34,-5.79,22.44,1.35,8.73,1.86
61052,13.30,-4.78,25.50,1.29,8.73,1.94
61087,12.84,-6.87,27.94,1.17,8.73,2.03
61122,12.09,-7.72,31.11,1.07,8.73,2.02
61157,10.07,-7.04,34.40,0.93,8.73,2.02
61192,8.17,-7.41,36.56,0.91,8.73,2.00
61227,3.74,-7.56,37.26,0.85,8.73,1.99
61262,0.44,-7.47,37.07,0.79,8.73,2.02
61297,-2.45,-5.10,35.56,0.65,8.73,1.99
61332,-4.26,-5.53,34.73,0.63,8.73,1.87
61368,-5.97,-4.36,30.92,0.54,8.73,1.75
61402,-8.02,-2.57,28.45,0.56,8.73,1.59
61437,-5.92,-1.36,23.76,0.63,8.73,1.44
61472,-3.02,1.03,20.63,0.71,8.73,1.35
61507,0.07,0.12,19.75,0.89,8.73,1.28
61542,3.38,-1.04,19.71,1.04,8.73,1.36
61577,6.21,-1.78,19.85,1.13,8.73,1.48
61612,10.12,-4.46,20.99,1.18,8.73,1.62
61647,11.84,-5.38,25.04,1.10,8.73,1.69
61682,11.92,-6.60,28.31,1.03,8.73,1.70
61717,13.17,-6.55,31.32,1.00,8.73,1.64
61752,11.07,-6.86,34.37,0.96,8.73,1.65
61787,9.22,-6.21,37.31,1.06,8.73,1.73
61823,5.42,-6.68,38.18,1.19,8.73,1.66
61857,1.35,-8.95,38.52,1.28,8.73,1.74
61892,-1.07,-5.47,36.58,1.31,8.73,1.85
61927,-3.94,-7.43,33.06,1.33,8.73,1.95
61962,-4.59,-6.47,29.99,1.35,8.73,2.02
61997,-6.81,-6.35,27.45,1.24,8.73,2.10
62032,-6.46,-6.85,24.79,1.14,8.73,2.18
62067,-4.86,-5.22,22.07,0.95,8.73,2.19
62102,-1.30,-5.23,19.67,0.90,8.73,2.19
62137,3.70,-4.21,19.11,0.79,8.73,2.12
62172,6.76,-3.59,17.34,0.73,8.73,2.04
62207,9.64,-3.28,19.82,0.79,8.73,1.92
62242,11.29,-4.03,23.01,0.82,8.73,1.83
62277,12.35,-4.13,25.33,0.93,8.73,1.81
62312,12.84,-5.34,28.82,0.92,8.73,1.78
62347,11.66,-7.32,32.58,0.92,8.73,1.75
62383,10.20,-3.38,35.85,0.84,8.73,1.63
62417,5.71,-7.77,37.27,0.93,8.73,1.68
62452,3.08,-4.87,40.27,0.98,8.73,1.48
62487,-0.51,-4.29,37.65,1.06,8.73,1.48
62522,-4.29,-7.17,34.16,1.28,8.73,1.54
62557,-4.99,-4.82,31.47,1.24,8.73,1.60
62592,-6.55,-4.86,28.33,1.07,8.73,1.68
62627,-4.69,-3.03,24.80,1.00,8.73,1.59
62662,-3.66,-0.05,21.99,1.00,8.73,1.54
62697,-1.59,-0.62,20.03,1.08,8.73,1.44
62732,1.11,-1.80,18.02,1.17,8.73,1.47
62767,4.33,-0.39,19.52,1.28,8.73,1.55
62802,6.43,-2.64,19.27,1.35,8.73,1.65
62838,10.11,-6.12,22.14,1.32,8.73,1.86
62872,12.92,-6.35,25.77,1.09,8.73,1.90
62907,14.24,-8.24,29.61,0.95,8.73,1.93
62942,12.29,-9.24,32.49,0.88,8.73,1.79
62977,9.13,-5.58,35.08,0.75,8.73,1.69
63012,7.44,-7.32,38.00,0.87,8.73,1.63
63052,3.44,-6.76,38.52,0.89,8.73,1.69
63087,-0.32,-7.50,38.71,0.92,8.73,1.79
63122,-3.53,-7.35,36.35,0.72,8.73,1.87
63157,-5.26,-5.00,33.00,0.59,8.73,1.83
63192,-5.37,-2.99,29.36,0.51,8.73,1.62
63227,-6.12,-1.41,25.73,0.47,8.73,1.47
63262,-5.05,0.63,23.08,0.57,8.73,1.30
63297,-2.41,1.02,21.15,0.72,8.73,1.18
63333,0.28,1.13,19.37,0.94,8.73,1.22
63367,5.03,0.29,20.66,1.12,8.73,1.28
63402,8.40,-2.10,19.04,1.26,8.73,1.44
63437,9.89,-3.26,22.75,1.30,8.73,1.63
63472,12.89,-7.85,26.02,1.22,8.73,1.73
63507,13.75,-6.02,28.49,1.15,8.73,1.76
63542,12.22,-6.27,32.34,1.08,8.73,1.79
63577,10.57,-9.54,34.62,1.07,8.73,1.74
63612,8.21,-5.63,37.72,1.06,8.73,1.71
63647,4.33,-7.96,37.28,1.11,8.73,1.87
63682,0.22,-7.71,38.37,1.09,8.73,1.93
63717,-2.36,-6.88,36.47,0.99,8.73,1.96
63752,-4.31,-4.75,33.41,1.01,8.73,1.95
63787,-7.45,-5.16,31.25,0.91,8.73,1.95
63822,-5.48,-6.00,26.63,0.96,8.73,2.01
63857,-4.56,-4.09,23.45,0.97,8.73,2.03
63892,-2.78,-6.50,21.20,0.88,8.73,2.08
63927,1.00,-5.24,19.99,0.85,8.73,2.07
63962,3.93,-4.52,19.93,0.77,8.73,2.02
63997,6.23,-6.88,19.86,0.73,8.73,1.97
64032,9.97,-4.52,22.95,0.65,8.73,1.92
64067,12.33,-5.89,24.34,0.60,8.73,1.85
64102,13.57,-6.01,28.43,0.60,8.73,1.77
64137,12.21,-5.73,33.03,0.72,8.73,1.65
64172,12.19,-5.19,35.57,0.77,8.73,1.70
64207,8.80,-6.22,36.79,0.95,8.73,1.80
64242,4.88,-6.58,37.86,0.92,8.73,1.91
64277,1.37,-8.28,36.82,0.81,8.73,2.10
64312,-0.79,-5.73,34.44,0.68,8.73,2.10
64348,-5.88,-3.49,37.37,0.71,8.73,2.00
64383,-4.77,-4.39,32.55,0.69,8.73,1.93
64417,-4.70,-3.74,28.03,0.76,8.73,1.92
64452,-6.64,-4.48,25.82,0.90,8.73,1.87
64487,-3.70,-2.61,21.70,0.84,8.73,1.93
64522,-0.06,-5.84,19.98,0.84,8.73,2.06
64557,3.08,-5.62,18.68,0.76,8.73,2.12
64592,6.07,-5.61,19.97,0.61,8.73,2.16
64627,9.11,-6.51,19.66,0.49,8.73,2.11
64662,12.51,-6.26,22.62,0.34,8.73,1.99
64697,13.73,-6.62,27.05,0.35,8.73,1.86
64732,13.31,-5.51,30.72,0.45,8.73,1.67
64767,10.90,-3.90,33.84,0.60,8.73,1.67
64802,9.69,-6.57,37.41,0.80,8.73,1.73
64838,5.65,-5.43,37.49,0.81,8.73,1.73
64872,2.26,-6.25,38.23,0.84,8.73,1.81
64907,0.06,-5.34,37.96,0.92,8.73,1.81
64942,-3.08,-5.81,35.15,0.86,8.73,1.80
64977,-4.59,-4.33,32.42,0.87,8.73,1.84
65012,-6.32,-3.33,28.62,0.90,8.73,1.75
65047,-4.42,-2.06,25.81,0.89,8.73,1.79
65087,-3.83,-1.65,21.89,0.94,8.73,1.77
65122,-0.00,-3.41,20.61,1.01,8.73,1.85
65157,1.22,-3.82,18.57,0.98,8.73,1.91
65192,6.56,-5.27,19.79,0.90,8.73,2.02
65227,10.01,-4.80,18.15,0.83,8.73,2.02
65262,10.66,-5.20,23.70,0.75,8.73,1.99
65297,12.80,-5.02,26.16,0.83,8.73,1.96
65332,13.83,-5.80,29.62,0.92,8.73,1.96
65368,12.25,-8.58,32.55,0.89,8.73,2.04
65402,8.95,-4.96,35.33,0.88,8.73,2.11
65437,5.56,-7.80,38.37,0.80,8.73,2.10
65472,2.94,-8.17,38.65,0.68,8.73,2.13
65507,-1.08,-5.47,38.69,0.60,8.73,2.05
65542,-2.40,-5.58,34.44,0.53,8.73,1.93
65577,-5.68,-3.70,32.72,0.60,8.73,1.81
65612,-6.29,-2.05,30.15,0.69,8.73,1.70
65647,-4.60,-3.42,26.06,0.86,8.73,1.72
65682,-2.88,-2.99,22.24,1.02,8.73,1.78
65717,-1.88,-3.75,20.04,1.02,8.73,1.77
65752,2.95,-3.82,19.01,1.05,8.73,1.83
65787,6.86,-2.75,18.27,1.08,8.73,1.84
65822,10.44,-3.80,19.15,1.17,8.73,1.84
65857,11.99,-4.14,21.90,1.18,8.73,1.90
65892,10.91,-5.48,23.16,1.33,8.73,1.98
65927,12.82,-5.24,27.80,1.26,8.73,2.12
65962,11.37,-10.30,30.69,1.23,8.73,2.25
65997,10.26,-8.16,35.04,1.09,8.73,2.34
66032,6.03,-8.37,36.17,0.89,8.73,2.35
66067,3.40,-9.08,38.56,0.73,8.73,2.31
66102,0.07,-7.07,38.46,0.67,8.73,2.18
66137,-3.50,-8.37,36.43,0.61,8.73,2.05
66172,-4.69,-5.25,33.33,0.63,8.73,1.93
66207,-5.78,-4.57,29.22,0.69,8.73,1.83
66242,-6.77,-3.16,25.62,0.70,8.73,1.68
66278,-4.03,-2.60,22.31,0.74,8.73,1.59
66312,-3.41,-1.07,18.87,0.84,8.73,1.42
66348,1.62,-0.53,20.87,0.96,8.73,1.34
66382,6.28,0.11,20.71,1.14,8.73,1.36
66417,7.64,0.22,16.68,1.39,8.73,1.41
66452,9.57,-1.69,22.23,1.60,8.73,1.57
66487,9.63,-2.70,22.72,1.64,8.73,1.88
66522,13.68,-8.34,26.58,1.78,8.73,2.17
66557,11.47,-9.11,33.02,1.77,8.73,2.44
66592,11.65,-10.10,36.89,1.43,8.73,2.58
66627,8.77,-11.54,37.35,1.16,8.73,2.56
66662,4.47,-10.97,36.88,0.93,8.73,2.39
66697,0.19,-9.20,39.22,0.90,8.73,2.15
66733,-2.97,-8.70,36.28,0.89,8.73,1.99
66767,-3.39,-7.05,32.06,0.76,8.73,1.88
66802,-6.55,-5.87,29.35,0.63,8.73,1.75
66837,-8.23,-4.86,27.01,0.42,8.73,1.51
66872,-5.25,-0.06,25.73,0.30,8.73,1.17
66907,-1.85,2.43,21.18,0.53,8.73,0.90
66942,2.26,3.94,20.73,0.87,8.73,0.80
66977,5.19,2.80,18.96,1.21,8.73,0.86
