timestamp,accelX,accelY,accelZ,gyroX,gyroY,gyroZ
76487,12.05,-11.03,36.53,1.16,8.73,2.02
76522,8.65,-6.77,39.82,1.00,8.73,1.85
76557,5.38,-7.09,38.33,0.99,8.73,1.78
76592,1.53,-8.79,37.22,1.02,8.73,1.85
76627,-1.73,-4.37,36.68,1.00,8.73,1.83
76662,-5.04,-7.99,34.47,0.94,8.73,1.88
76697,-6.48,-6.27,31.85,0.71,8.73,1.90
76732,-6.19,-3.28,28.70,0.66,8.73,1.78
76767,-5.59,-2.99,26.25,0.80,8.73,1.72
76802,-4.53,-2.11,23.49,0.84,8.73,1.72
76837,-4.12,-2.03,20.60,1.00,8.73,1.71
76872,-0.74,-1.18,19.69,1.10,8.73,1.67
76907,3.15,2.33,21.83,1.33,8.73,1.50
76942,10.19,0.19,23.52,1.62,8.73,1.51
76977,13.48,-2.75,27.07,1.95,8.73,1.73
77012,11.93,-6.51,31.08,1.93,8.73,2.05
77047,13.24,-8.39,35.48,1.76,8.73,2.27
77082,12.27,-10.46,38.95,1.51,8.73,2.38
77117,8.77,-10.02,40.88,1.32,8.73,2.43
77152,4.23,-9.76,42.44,1.17,8.73,2.45
77187,0.37,-9.92,43.84,1.03,8.73,2.47
77222,-2.05,-8.77,39.20,0.88,8.73,2.51
77257,-4.82,-5.10,37.57,0.89,8.73,2.39
77297,-5.15,-7.52,31.23,1.07,8.73,2.38
77332,-5.96,-10.40,28.18,1.17,8.73,2.55
77368,-4.96,-8.91,25.27,1.07,8.73,2.89
77402,-2.85,-14.26,22.14,0.84,8.73,3.23
77437,-0.34,-16.32,21.01,0.43,8.73,3.31
77472,4.68,-11.86,23.34,0.15,8.73,3.00
77507,9.37,-5.45,25.74,0.12,8.73,2.55
77542,13.43,-5.99,30.04,0.24,8.73,2.19
77577,15.15,-5.56,34.16,0.41,8.73,2.00
77612,13.97,-6.55,37.47,0.60,8.73,1.91
77647,11.36,-4.98,40.36,0.73,8.73,1.93
77682,8.62,-7.41,42.44,0.85,8.73,2.01
77717,4.22,-8.94,43.28,0.82,8.73,2.15
77752,0.46,-7.95,43.54,0.73,8.73,2.23
77787,-2.64,-6.29,40.72,0.73,8.73,2.12
77823,-5.81,-2.81,39.38,0.71,8.73,2.03
77857,-5.38,-3.70,34.82,0.77,8.73,1.94
77892,-3.95,-2.40,30.66,0.82,8.73,1.96
77927,-3.85,-4.87,26.40,0.92,8.73,2.00
77962,0.59,-5.44,25.06,0.99,8.73,2.07
77997,2.85,-5.81,22.98,0.93,8.73,2.16
78032,6.47,-5.71,22.88,0.87,8.73,2.15
78067,10.07,-4.59,24.54,0.83,8.73,2.05
78102,13.52,-5.06,27.46,0.73,8.73,2.02
78137,14.18,-6.76,31.66,0.68,8.73,1.91
78172,13.74,-5.09,35.42,0.71,8.73,1.84
78207,12.03,-7.12,37.85,0.77,8.73,1.79
78242,9.24,-6.91,41.39,0.91,8.73,1.86
78277,5.22,-6.08,42.61,0.98,8.73,1.78
78313,0.82,-6.08,44.20,1.12,8.73,1.78
78347,-2.41,-4.96,43.14,1.29,8.73,1.78
78382,-4.31,-7.71,38.53,1.45,8.73,1.89
78417,-5.15,-5.62,34.57,1.39,8.73,2.02
78452,-4.88,-6.22,30.05,1.34,8.73,2.12
78487,-1.23,-5.77,26.56,1.22,8.73,2.13
78522,1.07,-5.42,24.43,1.20,8.73,2.10
78557,2.99,-4.43,23.97,1.19,8.73,2.11
78592,7.42,-5.10,24.33,1.20,8.73,2.08
78627,10.91,-3.14,26.64,1.25,8.73,2.04
78662,12.87,-3.54,28.57,1.22,8.73,2.04
78697,13.26,-5.57,31.55,1.22,8.73,2.12
78732,12.89,-9.17,33.83,1.05,8.73,2.13
78767,12.69,-9.63,37.46,1.02,8.73,2.04
78802,9.44,-4.59,40.70,0.92,8.73,1.96
78837,5.64,-7.91,42.26,0.90,8.73,2.01
78872,1.46,-8.69,42.01,0.84,8.73,2.18
78907,-1.93,-7.84,40.40,0.80,8.73,2.14
78942,-3.92,-4.15,37.40,0.80,8.73,2.03
78977,-5.87,-3.72,34.18,0.78,8.73,1.95
79012,-6.32,-3.08,31.21,0.84,8.73,1.97
79047,-4.29,-4.30,27.37,0.88,8.73,2.04
79082,0.15,-5.51,23.73,0.97,8.73,2.07
79117,4.38,-6.31,22.75,0.95,8.73,2.08
79152,7.60,-5.74,22.84,0.90,8.73,2.08
79187,9.29,-3.12,23.17,0.89,8.73,2.00
79222,10.32,-3.09,25.47,0.85,8.73,1.97
79257,11.73,-6.94,28.98,0.93,8.73,1.94
79292,12.69,-8.16,33.42,0.92,8.73,1.88
79333,12.83,-4.60,39.59,0.95,8.73,1.82
79368,9.49,-7.53,41.44,1.05,8.73,1.78
79402,6.05,-7.31,42.31,1.18,8.73,1.63
79437,1.82,-6.34,42.44,1.38,8.73,1.63
79472,-1.99,-5.14,40.61,1.62,8.73,1.62
79507,-4.59,-6.50,38.86,1.75,8.73,1.80
79542,-6.24,-8.13,35.31,1.69,8.73,2.05
79577,-6.05,-7.30,30.79,1.52,8.73,2.19
79612,-3.55,-5.98,26.78,1.31,8.73,2.23
79647,-0.08,-6.08,23.09,1.19,8.73,2.13
79682,3.80,-4.33,22.48,1.16,8.73,2.02
79717,4.80,-0.80,23.70,1.21,8.73,1.98
79752,9.31,-1.16,25.32,1.31,8.73,1.94
79787,10.59,-3.33,27.27,1.27,8.73,2.06
79823,11.77,-4.56,29.84,1.36,8.73,2.25
79857,13.39,-8.44,33.74,1.32,8.73,2.33
79892,12.23,-8.82,37.89,1.23,8.73,2.38
79927,9.67,-7.03,40.57,1.07,8.73,2.36
79962,5.98,-7.06,40.97,0.95,8.73,2.24
79997,2.67,-7.67,40.59,0.95,8.73,2.11
80032,-1.28,-7.93,40.47,1.05,8.73,2.00
80067,-3.37,-5.37,37.59,1.26,8.73,1.95
80102,-4.14,-5.47,34.39,1.36,8.73,1.99
80137,-5.95,-6.33,30.48,1.35,8.73,2.10
80172,-4.50,-5.11,27.72,1.17,8.73,2.19
80207,-3.57,-6.99,23.53,1.15,8.73,2.29
80242,-0.51,-6.67,23.14,1.10,8.73,2.30
80277,4.28,-6.71,23.29,0.99,8.73,2.28
80312,8.24,-5.19,24.48,0.93,8.73,2.23
80347,11.04,-5.44,27.65,0.89,8.73,2.20
80382,13.49,-7.55,30.38,0.85,8.73,2.12
80417,13.31,-5.12,34.34,0.83,8.73,2.08
80452,12.26,-7.51,37.45,0.82,8.73,2.08
80487,9.36,-8.92,39.32,0.89,8.73,2.05
80522,6.12,-7.75,40.95,0.88,8.73,2.04
80557,3.13,-7.19,42.86,0.81,8.73,2.05
80592,0.13,-5.84,39.93,0.76,8.73,2.03
80627,-3.55,-7.18,37.74,0.61,8.73,2.03
80662,-4.87,-5.31,34.73,0.60,8.73,1.96
80697,-8.84,-2.91,35.36,0.77,8.73,1.84
80732,-4.53,-2.16,30.07,0.79,8.73,1.74
80767,-5.14,0.52,25.69,0.93,8.73,1.73
80802,-0.54,0.17,25.69,1.06,8.73,1.68
80837,5.13,-2.64,24.50,1.15,8.73,1.69
80872,9.47,-2.98,24.83,1.23,8.73,1.79
80907,13.13,-5.21,26.92,1.29,8.73,1.89
80942,14.15,-7.15,30.11,1.28,8.73,1.99
80977,13.52,-7.54,33.62,1.21,8.73,2.05
81012,12.61,-7.88,36.82,1.19,8.73,2.08
81047,9.90,-6.31,37.81,1.08,8.73,2.09
81082,6.96,-8.79,40.32,1.02,8.73,2.10
81117,3.53,-8.68,42.06,0.97,8.73,2.21
81152,0.40,-7.96,41.49,1.03,8.73,2.14
81187,-2.98,-7.26,39.94,1.07,8.73,2.11
81222,-4.16,-5.91,36.39,1.05,8.73,2.11
81257,-5.93,-6.55,32.62,1.04,8.73,2.14
81292,-4.64,-5.15,29.38,1.04,8.73,2.24
81328,-5.87,-6.38,25.24,0.99,8.73,2.31
81367,-0.46,-5.24,24.61,0.94,8.73,2.33
81402,4.19,-6.19,24.35,0.85,8.73,2.22
81437,8.39,-3.49,24.39,0.79,8.73,2.14
81472,12.18,-5.59,26.82,0.81,8.73,2.05
81507,13.76,-6.82,29.64,0.89,8.73,2.00
81542,13.87,-7.36,33.00,0.93,8.73,1.97
81577,12.91,-7.54,36.41,1.02,8.73,2.00
81612,9.85,-5.33,38.93,1.01,8.73,2.02
81647,7.12,-7.89,39.45,1.01,8.73,1.95
81682,3.38,-7.11,41.24,0.83,8.73,2.11
81717,-0.34,-8.40,41.42,0.84,8.73,2.09
81752,-3.07,-5.34,41.38,0.75,8.73,1.96
81787,-4.41,-5.47,36.71,0.63,8.73,1.93
81822,-6.53,-3.51,32.85,0.62,8.73,1.82
81857,-3.55,-1.02,29.31,0.64,8.73,1.73
81892,-3.96,-2.06,25.43,0.77,8.73,1.73
81927,0.36,-3.52,24.20,0.91,8.73,1.82
81962,3.69,-5.24,23.58,0.95,8.73,1.97
81997,6.93,-4.71,23.13,1.00,8.73,1.97
82032,10.89,-2.57,25.10,1.03,8.73,1.94
82067,12.95,-5.06,28.52,1.03,8.73,1.95
82102,13.70,-4.93,31.31,1.17,8.73,2.02
82137,13.53,-8.09,36.21,1.13,8.73,2.05
82171,9.84,-9.70,38.25,1.14,8.73,2.06
82206,7.99,-8.86,42.29,1.11,8.73,1.97
82241,4.53,-7.56,43.46,1.21,8.73,1.88
82276,0.24,-6.79,43.41,1.35,8.73,1.85
82311,-2.59,-7.99,40.77,1.40,8.73,1.93
82347,-6.34,-8.57,37.96,1.44,8.73,2.05
82382,-5.88,-7.94,33.21,1.36,8.73,2.16
82416,-5.44,-7.62,28.98,1.24,8.73,2.21
82451,-3.47,-5.27,24.77,1.18,8.73,2.14
82485,1.05,-2.76,23.86,1.03,8.73,2.01
82520,4.60,-2.90,23.70,1.05,8.73,1.88
82555,6.52,-1.87,22.91,1.12,8.73,1.85
82590,10.02,-4.63,25.06,1.29,8.73,1.85
82625,9.26,-2.42,26.06,1.26,8.73,2.06
82660,12.93,-9.08,32.60,1.26,8.73,2.12
82695,13.80,-6.44,36.80,1.06,8.73,2.19
82730,11.57,-6.65,40.43,1.00,8.73,2.25
82765,9.11,-7.90,42.39,0.95,8.73,2.26
82799,4.19,-8.97,42.98,0.92,8.73,2.20
82834,0.79,-8.25,42.72,0.84,8.73,2.19
82869,-3.45,-7.32,41.82,0.89,8.73,2.06
82904,-4.81,-5.06,38.81,0.94,8.73,2.01
82939,-4.41,-5.70,33.46,1.00,8.73,1.97
82974,-4.92,-3.99,29.55,1.00,8.73,1.99
83009,-3.56,-3.81,25.98,1.01,8.73,2.02
83044,0.91,-4.89,23.79,1.07,8.73,2.00
83079,3.79,-4.01,22.86,1.10,8.73,1.94
83113,5.50,-1.35,21.54,1.16,8.73,1.83
83148,7.50,-3.16,23.19,1.22,8.73,1.86
83183,11.92,-5.40,27.59,1.27,8.73,1.95
83218,13.24,-6.10,32.86,1.29,8.73,2.05
83253,14.83,-7.71,37.69,1.21,8.73,2.09
83288,12.39,-9.50,39.91,1.14,8.73,2.13
83323,9.17,-9.47,40.83,1.13,8.73,2.10
83358,4.94,-7.50,41.74,1.13,8.73,1.98
83398,0.29,-8.88,42.91,1.19,8.73,2.03
83433,-4.02,-8.83,41.60,1.17,8.73,2.09
83468,-6.08,-7.09,38.11,1.04,8.73,2.14
83503,-6.83,-6.49,33.18,0.92,8.73,2.13
83538,-6.35,-4.05,30.27,0.94,8.73,2.04
83573,-2.44,-1.38,27.14,0.85,8.73,1.92
83608,0.46,-3.22,23.90,0.86,8.73,1.79
83643,0.84,-0.79,23.99,0.99,8.73,1.62
83678,6.51,-2.70,23.98,1.16,8.73,1.55
83713,11.71,-3.24,26.14,1.26,8.73,1.66
83748,13.58,-5.76,29.23,1.20,8.73,1.77
83783,13.82,-8.13,32.87,1.05,8.73,1.77
83819,13.19,-7.97,36.30,0.84,8.73,1.57
83853,11.60,-6.11,39.25,0.72,8.73,1.30
83888,8.12,-6.13,40.74,0.92,8.73,1.09
83923,4.84,-5.15,42.31,1.20,8.73,1.09
83958,0.22,-5.94,45.51,1.39,8.73,1.32
83993,-3.47,-5.88,43.86,1.39,8.73,1.64
84028,-5.04,-5.83,39.26,1.25,8.73,1.83
84063,-3.54,-5.04,32.60,1.15,8.73,1.86
84098,-4.37,-3.18,29.52,1.09,8.73,1.88
84133,-4.69,-4.98,25.74,1.10,8.73,1.90
84168,-3.04,-4.14,25.01,1.15,8.73,1.85
84203,1.54,-1.95,24.32,1.18,8.73,1.79
84238,7.69,-1.21,23.99,1.28,8.73,1.78
84273,11.69,-2.28,26.53,1.37,8.73,1.85
84308,14.01,-6.17,29.39,1.29,8.73,1.94
84344,14.19,-6.70,32.06,1.15,8.73,1.99
84378,13.04,-8.66,33.87,1.05,8.73,1.98
84413,11.63,-8.79,36.68,1.05,8.73,1.87
84448,9.23,-4.27,40.10,1.01,8.73,1.81
84483,5.48,-8.03,42.82,1.05,8.73,1.87
84518,1.42,-8.05,43.45,1.04,8.73,1.96
84553,-2.25,-7.79,41.53,1.03,8.73,2.01
84588,-3.81,-6.10,37.40,0.95,8.73,2.05
84623,-3.53,-5.36,32.98,0.72,8.73,1.99
84658,-5.42,-3.19,30.85,0.64,8.73,1.87
84693,-3.51,-1.33,27.59,0.65,8.73,1.88
84728,-1.93,-5.04,24.91,0.78,8.73,1.92
84763,1.26,-5.90,22.46,0.82,8.73,2.03
84798,6.47,-6.21,23.20,0.77,8.73,2.07
84834,10.63,-6.28,23.93,0.69,8.73,2.04
84868,12.66,-6.53,26.55,0.49,8.73,1.95
84903,14.38,-7.69,29.55,0.32,8.73,1.76
84938,12.97,-5.97,33.52,0.21,8.73,1.53
84973,11.57,-6.23,35.86,0.42,8.73,1.27
85008,8.91,-4.93,40.45,0.70,8.73,1.10
85043,6.03,-2.72,42.75,0.91,8.73,1.29
85078,2.42,-6.66,43.21,1.04,8.73,1.63
85113,-0.35,-5.35,40.31,1.08,8.73,1.79
85148,-3.65,-5.43,37.42,1.08,8.73,1.81
85183,-3.46,-3.42,33.38,1.12,8.73,1.83
85218,-5.47,-4.60,30.48,1.12,8.73,1.83
85253,-4.07,-2.04,27.32,1.12,8.73,1.90
85288,-2.92,-3.72,24.45,1.09,8.73,2.01
85323,0.69,-4.42,23.04,1.11,8.73,2.07
85358,5.44,-3.58,22.51,1.10,8.73,2.00
85394,8.44,-5.16,22.57,1.14,8.73,1.98
85433,10.25,-7.95,24.43,1.00,8.73,2.09
85468,12.52,-4.75,29.82,1.01,8.73,2.13
85503,13.66,-7.95,33.83,0.97,8.73,2.08
85538,12.26,-4.38,37.90,0.90,8.73,2.10
85574,9.67,-7.05,40.82,0.94,8.73,2.20
85608,5.81,-7.64,42.30,0.90,8.73,2.25
85643,2.15,-8.24,42.48,0.76,8.73,2.31
85678,-0.63,-7.51,39.84,0.71,8.73,2.19
85713,-3.53,-3.67,38.52,0.83,8.73,2.04
85748,-4.78,-4.62,35.21,0.95,8.73,1.97
85783,-5.72,-4.40,31.46,1.08,8.73,2.01
85819,-4.74,-3.43,27.91,1.03,8.73,2.05
85853,-3.38,-5.46,23.47,1.03,8.73,2.05
85888,0.24,-4.15,23.27,1.06,8.73,2.01
85923,3.36,-2.73,23.26,1.08,8.73,1.83
85958,8.21,-3.09,23.85,1.10,8.73,1.86
85993,10.74,-4.49,26.16,1.02,8.73,1.90
86028,12.34,-9.56,29.13,0.83,8.73,1.92
86063,13.60,-8.76,34.27,0.55,8.73,1.80
86099,12.61,-8.04,37.51,0.49,8.73,1.52
86133,9.58,-4.39,39.94,0.60,8.73,1.27
86168,6.18,-5.53,41.35,0.88,8.73,1.32
86203,2.88,-6.96,42.90,1.02,8.73,1.53
86239,0.16,-6.52,41.42,1.03,8.73,1.71
86273,-3.07,-7.20,38.38,0.95,8.73,1.79
86308,-4.69,-4.20,34.39,0.97,8.73,1.76
86344,-5.61,-3.95,31.06,0.91,8.73,1.64
86378,-4.52,-0.64,28.27,0.85,8.73,1.52
86413,-3.03,0.12,24.55,0.86,8.73,1.42
86448,-4.30,2.65,24.45,1.15,8.73,1.32
86483,2.44,0.85,25.05,1.39,8.73,1.27
86518,7.51,0.74,23.93,1.62,8.73,1.53
86553,12.17,-4.51,26.93,1.80,8.73,1.73
86588,14.24,-7.45,30.13,1.77,8.73,1.98
86623,13.09,-8.84,33.34,1.56,8.73,2.11
86658,12.60,-8.03,37.17,1.38,8.73,2.15
86693,10.53,-7.56,40.38,1.21,8.73,2.12
86728,5.66,-8.97,40.64,1.14,8.73,2.06
86763,3.07,-8.19,42.89,1.12,8.73,2.03
86798,0.13,-7.94,41.08,1.12,8.73,2.01
86833,-3.68,-7.08,39.01,1.22,8.73,1.97
86868,-5.36,-6.02,36.96,1.26,8.73,1.98
86903,-6.20,-6.92,32.26,1.24,8.73,2.10
86938,-5.51,-6.77,28.55,1.17,8.73,2.20
86973,-4.87,-8.34,26.00,1.14,8.73,2.17
87008,0.12,-3.27,24.74,1.00,8.73,2.09
87043,4.44,-2.71,23.29,1.00,8.73,2.01
87078,8.26,-3.79,23.10,1.04,8.73,1.98
87113,10.91,-5.74,24.59,1.05,8.73,2.00
87148,12.39,-5.85,26.73,1.12,8.73,2.02
87183,13.24,-6.24,31.26,1.13,8.73,2.07
87218,12.98,-7.80,34.91,1.20,8.73,2.10
87253,11.09,-5.78,38.39,1.13,8.73,2.21
87288,8.64,-8.70,40.06,1.06,8.73,2.26
87324,4.21,-9.76,42.42,0.97,8.73,2.31
87358,0.74,-8.62,43.22,0.87,8.73,2.28
87393,-3.41,-6.99,41.61,0.88,8.73,2.20
87428,-5.85,-5.70,38.73,0.90,8.73,2.08
87468,-6.19,-5.69,33.76,0.99,8.73,2.04
87503,-4.68,-5.62,29.37,1.05,8.73,2.03
87538,-4.60,-3.21,25.01,1.00,8.73,2.04
87573,0.94,-3.65,23.61,0.96,8.73,1.98
87608,4.81,-3.09,23.37,1.01,8.73,1.86
87643,8.58,-2.25,22.15,1.17,8.73,1.75
87678,11.82,-1.01,25.05,1.44,8.73,1.73
87713,13.25,-5.02,28.04,1.49,8.73,1.84
87749,13.68,-7.16,30.26,1.37,8.73,1.94
87783,12.59,-8.33,33.25,1.19,8.73,1.98
87818,11.47,-9.52,36.14,1.13,8.73,1.93
87853,9.24,-6.66,39.80,1.13,8.73,1.85
87888,5.07,-7.10,41.69,1.22,8.73,1.64
87923,1.42,-8.19,43.28,1.34,8.73,1.79
87958,-2.20,-9.22,39.94,1.53,8.73,1.87
87993,-5.15,-7.66,37.44,1.60,8.73,1.97
88028,-4.75,-7.57,32.62,1.47,8.73,2.07
88063,-5.61,-6.40,28.89,1.30,8.73,2.15
88098,-4.30,-7.18,25.90,1.16,8.73,2.21
88133,-0.26,-5.14,23.46,1.13,8.73,2.06
88168,3.79,-1.63,22.67,1.08,8.73,1.91
88203,7.49,-0.43,23.53,1.14,8.73,1.77
88238,9.77,-1.78,22.91,1.23,8.73,1.75
88273,10.20,-4.14,24.10,1.36,8.73,1.89
88308,12.66,-6.19,28.76,1.36,8.73,1.99
88343,13.05,-5.33,32.14,1.27,8.73,2.04
88378,12.57,-6.92,35.87,1.16,8.73,2.17
88413,8.53,-9.85,37.71,1.19,8.73,2.20
88448,6.57,-7.66,39.94,1.11,8.73,2.22
88482,2.90,-7.18,42.59,1.06,8.73,2.18
88517,-0.25,-7.61,41.60,1.07,8.73,2.09
88552,-3.64,-7.98,38.83,1.32,8.73,1.99
88587,-5.16,-6.96,35.16,1.43,8.73,2.04
88622,-5.54,-7.06,30.76,1.42,8.73,2.11
88657,-4.01,-5.60,26.45,1.27,8.73,2.23
88692,-3.73,-7.77,22.91,1.13,8.73,2.20
88727,-1.07,-4.19,21.50,1.09,8.73,2.05
88762,0.24,-3.04,22.43,1.08,8.73,1.91
88797,6.99,-3.65,23.14,1.04,8.73,1.97
88832,10.71,-5.23,23.41,0.95,8.73,1.98
88867,12.17,-6.36,26.89,1.07,8.73,1.98
88902,12.84,-7.12,30.52,0.93,8.73,1.87
88937,12.59,-4.51,35.16,0.87,8.73,1.81
88972,11.70,-8.41,38.14,0.82,8.73,1.77
89007,9.30,-8.60,41.34,0.99,8.73,1.77
89042,4.86,-6.64,42.26,1.07,8.73,1.72
89077,0.68,-5.63,42.47,1.18,8.73,1.71
89112,-2.09,-5.08,39.54,1.22,8.73,1.76
89147,-3.93,-7.75,34.51,1.32,8.73,1.83
89182,-5.18,-4.71,31.64,1.25,8.73,1.90
89217,-6.45,-4.44,28.58,1.15,8.73,1.86
89252,-5.74,-2.93,26.26,0.98,8.73,1.87
89287,-2.40,-3.73,22.69,1.09,8.73,1.78
89323,3.35,-0.86,21.89,1.16,8.73,1.69
89357,6.65,-0.71,21.60,1.25,8.73,1.63
89392,5.90,-1.78,21.16,1.21,8.73,1.84
89427,10.70,-7.16,25.87,1.37,8.73,1.92
89462,13.60,-5.52,29.53,1.26,8.73,2.01
89502,13.71,-8.49,34.58,1.09,8.73,2.03
89537,12.69,-8.64,36.73,1.07,8.73,1.91
89572,9.55,-4.30,38.67,0.97,8.73,1.91
89607,5.54,-7.02,39.23,0.98,8.73,1.89
89642,2.55,-8.79,39.38,0.99,8.73,1.91
89677,0.00,-4.41,36.97,1.10,8.73,1.80
89712,-4.00,-6.02,36.51,0.93,8.73,1.83
89747,-5.10,-6.05,33.18,0.99,8.73,1.91
89782,-6.45,-4.53,30.61,0.99,8.73,1.83
89817,-8.64,-1.99,29.85,0.89,8.73,1.89
89852,-3.96,-8.71,24.30,1.01,8.73,1.97
89887,-1.60,-2.91,22.12,1.00,8.73,1.99
89922,2.42,-4.43,21.64,0.90,8.73,1.98
89957,7.07,-4.62,21.15,0.76,8.73,2.04
89992,10.12,-7.27,21.97,0.78,8.73,2.03
90027,13.02,-3.85,26.62,0.69,8.73,1.95
90062,13.04,-5.38,28.95,0.69,8.73,1.85
90097,12.92,-6.38,32.36,0.82,8.73,1.85
90132,12.32,-4.90,36.35,0.97,8.73,1.84
90167,9.21,-5.79,38.56,0.91,8.73,1.91
90202,5.98,-7.95,38.57,0.94,8.73,2.03
90237,1.84,-6.93,38.85,0.95,8.73,2.00
90272,-1.21,-5.79,39.04,0.84,8.73,1.96
90307,-2.95,-4.92,35.76,0.94,8.73,1.94
90343,-5.76,-3.47,33.43,0.93,8.73,1.86
90377,-6.58,-3.59,30.73,0.98,8.73,1.90
90412,-4.58,-5.65,26.31,1.00,8.73,1.82
90447,-2.11,0.53,22.95,0.95,8.73,1.79
90482,2.01,-2.61,21.67,0.96,8.73,1.75
90517,3.34,-4.07,20.54,1.00,8.73,1.86
90552,6.11,-5.98,20.60,1.03,8.73,1.89
90587,9.97,-3.51,23.25,0.90,8.73,1.96
90622,11.83,-7.76,25.09,0.89,8.73,1.99
90657,12.47,-6.13,29.13,0.86,8.73,1.92
90692,13.40,-4.81,33.11,0.84,8.73,1.85
90727,11.87,-7.72,35.40,0.73,8.73,1.83
90762,8.90,-8.42,38.48,0.88,8.73,1.87
90797,5.38,-5.71,40.62,0.94,8.73,1.80
90832,1.38,-7.60,40.74,0.88,8.73,1.95
90867,-1.52,-8.19,38.23,0.94,8.73,1.97
90902,-4.44,-3.05,37.54,0.88,8.73,1.92
90937,-5.40,-5.75,33.60,0.93,8.73,1.91
90972,-6.42,-6.27,29.96,0.96,8.73,1.94
91007,-5.38,-4.27,26.17,1.11,8.73,1.90
91042,-2.68,-0.74,23.51,0.97,8.73,1.87
91078,2.30,-3.82,22.06,1.02,8.73,1.86
91112,5.40,-3.99,21.22,1.05,8.73,1.91
91147,8.70,-4.71,22.53,1.15,8.73,1.89
91182,11.13,-3.67,24.90,1.04,8.73,1.95
91217,12.81,-6.79,27.06,1.13,8.73,2.03
91252,13.48,-6.57,30.72,1.21,8.73,2.05
91287,13.03,-4.00,34.44,1.23,8.73,2.18
91323,10.14,-8.96,36.38,1.13,8.73,2.38
91357,7.69,-10.65,38.05,1.07,8.73,2.43
91392,4.69,-8.47,41.16,0.81,8.73,2.38
91427,0.84,-7.45,41.79,0.71,8.73,2.32
91462,-3.15,-8.92,40.29,0.70,8.73,2.22
91497,-5.70,-6.68,36.62,0.72,8.73,2.12
91537,-7.90,-4.85,32.31,0.70,8.73,2.03
91572,-6.40,-4.61,28.06,0.69,8.73,1.91
91607,-1.99,-3.52,24.16,0.76,8.73,1.86
91643,1.48,-2.25,22.10,0.80,8.73,1.85
91677,4.10,-3.50,21.13,0.84,8.73,1.87
91712,7.08,-5.38,20.24,0.85,8.73,1.83
91747,9.06,-4.00,21.62,0.89,8.73,1.84
91782,11.07,-4.09,24.43,0.82,8.73,1.83
91817,12.24,-6.37,28.83,0.90,8.73,1.87
91852,12.24,-7.97,32.21,0.99,8.73,1.79
91887,12.10,-4.46,37.73,1.00,8.73,1.78
91922,9.02,-8.84,39.62,1.06,8.73,1.84
91957,6.01,-9.08,39.35,1.11,8.73,1.89
91993,2.04,-6.28,39.77,1.19,8.73,1.80
92027,-1.27,-7.33,38.95,1.08,8.73,1.87
92062,-5.13,-7.88,36.92,1.20,8.73,1.94
92097,-4.55,-6.77,32.69,1.11,8.73,2.01
92132,-5.92,-3.64,29.48,0.99,8.73,2.02
92167,-3.26,-6.85,25.17,0.89,8.73,2.05
92202,-2.62,-4.41,21.68,0.99,8.73,1.98
92237,2.38,-1.03,21.57,0.86,8.73,1.82
92272,4.01,-2.91,20.13,0.87,8.73,1.78
92307,2.77,-2.21,19.27,0.91,8.73,1.85
92343,8.53,-4.44,21.78,0.93,8.73,1.86
92378,12.13,-6.19,24.67,0.89,8.73,1.91
92412,13.05,-5.78,29.86,0.91,8.73,1.86
92447,14.00,-5.24,33.74,0.98,8.73,1.78
92482,11.77,-6.31,35.93,0.91,8.73,1.78
92517,8.58,-7.20,38.31,1.09,8.73,1.76
92552,5.09,-5.59,39.48,1.09,8.73,1.66
92588,1.16,-5.99,42.25,1.19,8.73,1.70
92622,-1.93,-8.58,37.53,1.28,8.73,1.78
92657,-3.94,-3.51,35.58,1.30,8.73,1.82
92692,-5.82,-5.37,30.79,1.32,8.73,1.89
92727,-6.11,-7.64,27.26,1.23,8.73,1.99
92762,-3.73,-3.38,24.75,1.15,8.73,1.94
92797,-4.67,-3.23,21.30,0.97,8.73,1.86
92833,0.80,-2.46,20.48,1.02,8.73,1.80
92867,3.74,-2.17,19.69,1.02,8.73,1.80
92902,4.81,-3.33,19.52,0.94,8.73,1.85
92937,9.16,-7.47,22.19,0.85,8.73,1.93
92972,12.14,-6.55,26.00,0.57,8.73,1.87
93007,13.52,-6.88,30.77,0.44,8.73,1.77
93042,14.78,-6.68,33.81,0.46,8.73,1.55
93077,11.57,-4.10,36.51,0.55,8.73,1.40
93112,8.36,-5.66,38.57,0.73,8.73,1.41
93147,4.66,-5.77,38.39,0.91,8.73,1.50
93182,1.34,-4.31,38.90,0.98,8.73,1.62
93218,-2.37,-5.74,36.14,0.95,8.73,1.70
93252,-4.49,-4.04,34.07,0.93,8.73,1.74
93287,-5.85,-3.26,30.79,0.91,8.73,1.74
93323,-6.39,-3.36,26.88,0.87,8.73,1.66
93357,-5.26,-0.13,23.76,0.86,8.73,1.61
93392,-5.34,-1.50,23.61,1.04,8.73,1.61
93427,-2.35,-0.64,20.04,1.10,8.73,1.58
93462,0.86,-1.07,20.35,1.16,8.73,1.63
93497,6.47,-3.11,19.13,1.19,8.73,1.64
93532,9.47,-3.18,20.34,1.16,8.73,1.71
93572,10.45,-4.35,23.89,1.07,8.73,1.79
93607,13.25,-5.47,27.37,0.99,8.73,1.86
93642,12.45,-6.38,31.57,0.93,8.73,1.79
93677,12.54,-6.45,35.37,0.82,8.73,1.72
93712,8.97,-7.06,36.62,0.93,8.73,1.63
93747,5.45,-5.56,37.21,0.97,8.73,1.51
93782,1.72,-5.59,36.44,1.04,8.73,1.49
93817,-0.95,-5.27,34.62,1.06,8.73,1.53
93852,-3.79,-4.56,33.80,1.07,8.73,1.65
93887,-8.12,-6.90,33.37,0.98,8.73,1.74
93922,-6.14,-5.48,29.44,0.91,8.73,1.80
93957,-7.04,-1.58,27.75,0.94,8.73,1.86
93992,-3.73,-5.58,21.98,1.07,8.73,1.97
94027,1.62,-3.69,18.08,1.05,8.73,2.11
94062,4.61,-7.69,16.82,0.92,8.73,2.27
94097,4.54,-7.89,16.11,0.74,8.73,2.33
94132,6.06,-7.01,18.24,0.56,8.73,2.32
94167,10.31,-5.18,21.97,0.60,8.73,2.17
94202,12.58,-4.30,26.81,0.65,8.73,2.06
94237,13.04,-5.86,30.08,0.80,8.73,2.08
94272,12.53,-4.30,33.57,0.99,8.73,2.23
94307,8.30,-7.66,35.11,1.01,8.73,2.55
94343,6.59,-9.28,36.00,0.85,8.73,2.75
94377,2.22,-8.76,36.89,0.50,8.73,2.75
94412,0.06,-6.72,37.17,0.27,8.73,2.52
94447,-2.96,-6.05,35.87,0.42,8.73,2.17
94482,-5.41,-5.40,36.00,0.72,8.73,1.98
94517,-7.66,-4.41,32.52,0.82,8.73,1.96
94552,-6.63,-3.95,27.32,0.96,8.73,2.02
94587,-5.37,-5.00,21.82,1.05,8.73,1.99
94622,-2.48,-2.36,20.40,0.97,8.73,1.92
94657,0.30,-4.09,18.53,0.99,8.73,1.88
94692,5.46,-2.89,19.92,1.08,8.73,1.80
94727,9.54,-2.56,20.41,1.21,8.73,1.78
94762,11.58,-3.55,22.01,1.39,8.73,1.79
94797,12.30,-5.59,24.96,1.33,8.73,1.92
94832,11.68,-7.81,28.47,1.21,8.73,2.04
94867,13.14,-8.33,32.15,1.04,8.73,2.07
94902,10.06,-8.93,34.71,0.90,8.73,2.06
94937,8.19,-7.52,37.34,0.87,8.73,2.10
94972,4.22,-10.02,38.84,0.75,8.73,2.32
95007,1.13,-9.74,39.52,0.64,8.73,2.36
95042,-2.28,-5.14,38.91,0.53,8.73,2.14
95077,-4.60,-4.71,34.62,0.56,8.73,1.88
95112,-4.35,-4.00,29.01,0.69,8.73,1.74
95147,-6.11,-4.62,26.54,0.79,8.73,1.65
95182,-5.23,-4.24,24.44,0.89,8.73,1.69
95217,-3.48,-2.37,21.49,1.00,8.73,1.64
95252,2.67,0.27,20.66,1.11,8.73,1.46
95287,6.97,3.00,20.76,1.39,8.73,1.23
95323,9.18,4.55,20.99,1.82,8.73,1.08
95357,10.58,0.36,23.46,2.36,8.73,1.25
95392,12.10,-3.28,25.10,2.53,8.73,1.70
95427,12.61,-5.52,29.84,2.40,8.73,2.18
95462,12.60,-12.22,33.91,2.00,8.73,2.62
95497,10.58,-13.85,38.44,1.66,8.73,2.66
95532,6.55,-10.47,40.58,1.28,8.73,2.45
95567,2.47,-9.42,41.72,1.18,8.73,2.20
95607,-0.47,-9.38,38.12,1.08,8.73,2.22
95642,-3.51,-8.11,37.01,1.01,8.73,2.15
95677,-4.47,-9.44,32.32,0.92,8.73,2.11
95712,-4.29,-6.09,27.99,0.71,8.73,1.98
95747,-4.21,-4.76,24.79,0.69,8.73,1.81
95782,-2.75,-1.53,21.12,0.64,8.73,1.52
95817,-0.49,-1.89,19.00,0.74,8.73,1.38
95852,0.70,-2.63,19.69,0.86,8.73,1.54
95887,5.36,-4.30,19.33,1.00,8.73,1.71
95922,9.12,-6.04,21.58,1.00,8.73,1.89
95957,12.93,-5.64,24.51,1.09,8.73,1.88
95992,12.61,-5.32,26.46,1.18,8.73,1.94
96027,13.07,-6.06,28.51,1.34,8.73,2.13
96062,11.61,-10.98,31.67,1.42,8.73,2.42
96097,9.67,-8.76,36.90,1.21,8.73,2.50
96132,4.26,-10.29,37.59,0.95,8.73,2.78
96167,2.28,-10.27,38.99,0.49,8.73,2.86
96202,-0.44,-7.99,36.37,0.09,8.73,2.72
96237,-5.47,-8.97,37.34,-0.17,8.73,2.44
96272,-7.47,-4.04,37.13,-0.25,8.73,2.07
96307,-8.02,-1.05,33.75,-0.19,8.73,1.67
96342,-5.66,1.81,28.93,0.02,8.73,1.41
96377,-1.59,1.15,23.99,0.32,8.73,1.15
96412,2.41,3.99,21.37,0.70,8.73,0.86
96447,5.33,1.61,21.50,1.07,8.73,0.66
96482,6.34,1.21,23.30,1.42,8.73,0.90
96517,11.42,-4.74,25.25,1.58,8.73,1.33
96552,12.51,-7.81,29.06,1.45,8.73,1.61
96587,15.00,-8.14,32.60,1.18,8.73,1.68
96622,13.23,-9.09,36.67,1.27,8.73,1.77
96657,8.90,-8.38,37.58,1.37,8.73,1.99
96692,7.01,-9.91,39.35,1.26,8.73,2.15
96727,2.38,-11.64,38.61,1.01,8.73,2.47
96762,-0.91,-10.70,39.10,0.70,8.73,2.60
96797,-3.07,-6.94,37.42,0.33,8.73,2.49
96833,-5.34,-7.40,32.79,0.04,8.73,2.24
96867,-8.03,-3.23,30.05,-0.11,8.73,1.91
96902,-4.43,-2.75,25.80,0.07,8.73,1.60
96937,-3.79,0.67,22.74,0.26,8.73,1.48
96972,-0.42,-1.03,20.48,0.48,8.73,1.44
97007,3.79,-3.17,18.31,0.66,8.73,1.43
97042,6.46,-3.91,18.49,0.79,8.73,1.42
97077,9.37,-3.22,20.28,0.85,8.73,1.50
97112,11.33,-5.31,24.33,0.90,8.73,1.55
97147,15.02,-7.28,25.75,0.88,8.73,1.56
97182,14.04,-6.29,29.84,0.88,8.73,1.54
97217,11.44,-5.65,30.44,1.00,8.73,1.61
97252,9.95,-5.15,31.05,1.20,8.73,1.91
97287,5.49,-9.15,33.16,1.21,8.73,2.06
97323,3.89,-9.06,36.15,0.97,8.73,2.32
97357,0.70,-9.36,36.01,0.88,8.73,2.29
97393,-3.22,-7.02,34.65,0.80,8.73,2.22
97427,-5.18,-7.20,30.65,0.66,8.73,2.13
97462,-6.59,-5.59,27.94,0.60,8.73,2.02
97497,-5.33,-5.36,23.35,0.55,8.73,1.92
97532,-4.55,-3.42,20.84,0.50,8.73,1.77
97567,-4.53,-2.39,17.59,0.55,8.73,1.66
97602,-0.23,-1.41,16.36,0.60,8.73,1.55
97642,3.59,-1.81,15.69,0.70,8.73,1.44
97677,5.75,-1.92,15.44,0.80,8.73,1.37
97712,7.20,-3.63,17.50,0.87,8.73,1.42
97747,10.83,-4.49,20.58,0.88,8.73,1.46
97782,12.95,-5.47,22.97,0.81,8.73,1.46
97817,12.66,-6.29,26.18,0.79,8.73,1.39
97852,11.55,-6.06,29.56,0.80,8.73,1.31
97887,9.66,-4.69,32.08,0.89,8.73,1.22
97922,7.21,-4.79,34.47,1.00,8.73,1.24
97957,3.58,-6.34,35.41,1.09,8.73,1.40
97992,0.35,-6.26,35.45,1.16,8.73,1.51
98027,-2.39,-6.79,32.18,1.11,8.73,1.61
98062,-5.21,-5.37,30.62,0.97,8.73,1.70
98097,-5.59,-4.76,27.67,0.80,8.73,1.71
98132,-6.74,-2.78,25.06,0.64,8.73,1.64
98167,-5.07,-1.09,21.84,0.64,8.73,1.51
98202,-3.72,-0.91,18.31,0.73,8.73,1.48
98237,-1.02,-1.28,16.02,0.82,8.73,1.49
98272,1.90,-1.78,14.71,0.88,8.73,1.58
98307,4.65,0.29,14.89,0.96,8.73,1.56
98342,6.64,-3.45,16.14,1.05,8.73,1.50
98377,10.62,-1.98,18.81,1.10,8.73,1.59
98412,12.14,-4.64,22.16,1.09,8.73,1.66
98447,12.49,-8.01,24.94,0.98,8.73,1.66
98482,12.15,-7.12,28.49,0.85,8.73,1.58
98517,11.17,-6.79,31.35,0.79,8.73,1.49
98552,8.30,-4.97,33.65,0.87,8.73,1.42
98587,5.57,-5.31,34.75,0.95,8.73,1.45
98622,2.12,-6.22,34.67,0.96,8.73,1.59
98657,-1.12,-6.29,34.09,0.93,8.73,1.72
98692,-4.18,-5.96,32.04,0.86,8.73,1.75
98727,-5.27,-4.11,27.99,0.74,8.73,1.71
98762,-6.72,-3.38,25.11,0.69,8.73,1.63
98797,-7.19,-3.04,22.30,0.68,8.73,1.58
98832,-5.47,-1.54,20.51,0.67,8.73,1.49
98867,-3.81,0.01,18.20,0.69,8.73,1.35
98902,0.31,0.32,16.03,0.81,8.73,1.27
98937,3.93,0.16,15.92,0.94,8.73,1.22
98972,5.58,-1.45,15.74,1.02,8.73,1.35
99007,8.61,-5.93,16.49,0.93,8.73,1.54
99042,10.99,-6.36,19.29,0.68,8.73,1.62
99077,11.67,-3.68,22.80,0.59,8.73,1.57
99112,12.29,-4.85,26.17,0.63,8.73,1.49
99147,12.00,-4.28,29.51,0.75,8.73,1.46
99182,9.42,-4.97,31.36,0.86,8.73,1.49
99217,7.32,-6.17,33.27,0.93,8.73,1.53
99252,3.89,-5.89,33.22,0.95,8.73,1.51
99287,0.71,-5.31,34.66,1.03,8.73,1.55
99322,-2.27,-4.99,32.71,1.10,8.73,1.60
99357,-5.16,-6.59,31.17,1.07,8.73,1.65
99392,-4.45,-5.12,25.93,1.01,8.73,1.74
99427,-8.69,-3.55,24.38,0.97,8.73,1.74
99462,-5.64,-3.65,22.02,0.98,8.73,1.79
99497,-6.83,-4.40,18.05,0.96,8.73,1.85
99532,-3.45,-2.90,17.40,0.96,8.73,1.94
99567,0.13,-4.24,15.58,0.91,8.73,2.02
99602,3.96,-4.57,15.66,0.83,8.73,2.02
99637,8.27,-4.27,16.74,0.76,8.73,2.01
99677,11.73,-3.98,19.27,0.81,8.73,1.87
99712,13.05,-3.68,21.35,0.83,8.73,1.82
99747,12.51,-5.53,24.30,0.83,8.73,1.79
99782,12.44,-6.19,27.63,0.80,8.73,1.73
99817,11.18,-6.66,30.43,0.76,8.73,1.66
99852,8.20,-5.19,32.63,0.72,8.73,1.51
99887,5.20,-5.42,32.76,0.77,8.73,1.44
99922,2.39,-5.65,34.05,0.79,8.73,1.52
99957,-0.86,-6.60,33.22,0.68,8.73,1.70
99992,-3.58,-4.98,31.86,0.50,8.73,1.73
100027,-5.29,-3.61,28.65,0.35,8.73,1.65
100062,-7.01,-2.04,25.61,0.35,8.73,1.49
100097,-6.51,0.30,23.25,0.36,8.73,1.29
100132,-4.56,0.41,20.12,0.51,8.73,1.23
100167,-5.64,-0.02,16.92,0.68,8.73,1.20
100202,-1.23,0.57,16.43,0.81,8.73,1.23
100237,1.42,-1.88,14.99,0.86,8.73,1.33
100272,5.13,-2.74,15.09,0.88,8.73,1.52
100307,8.59,-3.73,14.95,0.85,8.73,1.64
100343,11.45,-5.36,18.57,0.85,8.73,1.63
100377,13.29,-3.51,21.30,0.85,8.73,1.62
100412,12.87,-3.59,24.83,0.93,8.73,1.64
100447,11.71,-5.36,26.98,1.05,8.73,1.74
100482,11.19,-5.57,29.75,1.06,8.73,1.83
100517,8.60,-6.12,31.88,1.07,8.73,1.94
100552,5.68,-6.71,32.65,1.02,8.73,2.01
100587,2.13,-7.13,34.06,1.00,8.73,1.98
100622,-0.80,-5.03,33.27,1.05,8.73,1.90
100657,-4.28,-5.35,32.82,1.27,8.73,1.82
100692,-5.36,-5.26,28.45,1.54,8.73,1.88
100727,-6.49,-6.56,23.72,1.77,8.73,2.09
100762,-6.98,-8.10,20.49,1.84,8.73,2.40
100797,-6.15,-10.44,17.19,1.71,8.73,2.71
100832,-5.14,-10.33,14.37,1.49,8.73,2.98
100867,-2.00,-10.05,13.70,1.17,8.73,3.03
100902,0.23,-8.07,13.10,0.87,8.73,2.86
100937,5.01,-5.11,14.60,0.73,8.73,2.59
100972,9.70,-1.35,16.46,0.88,8.73,2.22
101008,12.37,-0.31,19.19,1.17,8.73,2.05
101042,12.86,-1.10,21.73,1.45,8.73,2.10
101077,12.97,-3.85,23.94,1.59,8.73,2.33
101112,10.93,-7.59,25.51,1.49,8.73,2.53
101147,9.75,-8.56,27.75,1.25,8.73,2.72
101182,6.20,-9.57,29.14,1.01,8.73,2.78
101217,3.53,-8.26,30.17,0.73,8.73,2.60
101252,2.06,-7.50,32.99,0.39,8.73,2.58
101287,-0.75,-7.37,31.82,0.28,8.73,2.28
101323,-4.02,-6.11,30.85,0.14,8.73,2.05
101357,-6.47,-2.08,29.34,0.20,8.73,1.78
101392,-7.12,-3.64,24.96,0.26,8.73,1.59
101427,-8.03,-0.24,22.72,0.39,8.73,1.45
101462,-6.90,-0.85,19.18,0.59,8.73,1.39
101497,-6.22,-0.06,16.87,0.76,8.73,1.37
101532,-1.13,-0.88,15.50,0.86,8.73,1.34
101567,1.22,-1.75,13.95,0.98,8.73,1.40
101602,4.79,-1.24,13.91,1.10,8.73,1.39
101637,8.38,-2.02,15.02,1.23,8.73,1.48
101672,11.06,-4.15,17.87,1.22,8.73,1.65
101712,13.28,-4.16,21.14,1.27,8.73,1.76
101747,13.80,-4.97,23.10,1.35,8.73,1.92
101782,13.23,-3.85,24.83,1.44,8.73,2.18
101817,10.33,-11.89,28.39,1.33,8.73,2.39
101852,8.07,-7.36,32.79,1.13,8.73,2.55
101887,6.30,-10.24,34.41,0.83,8.73,2.57
101922,1.71,-10.97,33.05,0.59,8.73,2.56
101957,-1.67,-7.71,31.81,0.21,8.73,2.48
101992,-4.21,-5.26,32.41,0.07,8.73,2.17
102027,-6.69,-5.01,31.19,0.09,8.73,1.86
102062,-8.48,-1.95,28.90,0.11,8.73,1.60
102097,-6.56,-2.63,25.15,0.31,8.73,1.47
102132,-5.25,-0.79,20.79,0.43,8.73,1.27
102167,-1.46,2.72,18.28,0.53,8.73,0.88
102202,1.00,7.10,16.85,0.91,8.73,0.47
102237,4.77,4.22,16.51,1.36,8.73,0.36
102272,10.27,2.05,20.77,1.82,8.73,0.68
102307,14.37,-1.06,22.39,1.90,8.73,1.13
102343,11.69,-7.08,25.85,1.79,8.73,1.50
102377,13.70,-6.19,29.38,1.69,8.73,1.81
102412,12.30,-6.56,34.15,1.70,8.73,2.05
102447,10.15,-10.29,34.59,1.53,8.73,2.30
102482,5.39,-11.42,36.71,1.36,8.73,2.46
102517,3.95,-9.60,37.96,1.08,8.73,2.41
102552,-1.06,-10.68,37.46,0.92,8.73,2.39
102587,-3.62,-10.31,35.31,0.74,8.73,2.34
102622,-3.52,-8.69,29.24,0.37,8.73,2.25
102657,-4.89,-6.75,25.31,-0.01,8.73,1.99
102692,-5.98,-0.91,23.80,-0.21,8.73,1.60
102727,-5.52,2.29,20.81,-0.05,8.73,1.25
102762,-4.57,-0.81,18.21,0.27,8.73,1.28
102797,0.09,-5.34,16.99,0.54,8.73,1.65
102832,4.23,-9.05,16.11,0.45,8.73,2.00
102867,10.08,-7.35,16.38,0.30,8.73,1.97
102902,10.52,-3.55,17.03,0.45,8.73,1.62
102937,11.41,-3.26,19.33,0.70,8.73,1.43
102972,11.84,-1.30,22.13,1.07,8.73,1.45
103007,11.28,-2.94,25.58,1.37,8.73,1.66
103042,10.51,-6.87,27.78,1.44,8.73,1.92
103077,8.77,-7.86,29.57,1.27,8.73,2.01
103112,7.62,-8.47,31.99,1.16,8.73,2.10
103147,3.95,-8.88,33.83,1.02,8.73,2.07
103182,0.34,-8.06,32.60,0.99,8.73,2.02
103217,-2.84,-6.23,29.71,0.96,8.73,1.93
103252,-4.36,-5.36,26.83,1.00,8.73,1.82
103287,-5.27,-5.48,23.70,0.91,8.73,1.82
103323,-5.88,-6.38,20.62,0.72,8.73,1.79
103357,-7.52,-3.40,18.96,0.54,8.73,1.67
103392,-5.68,-2.24,16.73,0.48,8.73,1.52
103427,-7.73,-0.20,17.03,0.62,8.73,1.52
103462,-1.01,-0.54,13.72,0.69,8.73,1.42
103497,0.36,-0.27,13.90,0.84,8.73,1.33
103532,5.47,-1.50,13.91,0.94,8.73,1.36
103567,9.53,-1.63,15.10,1.06,8.73,1.39
103602,11.02,-3.43,17.73,1.14,8.73,1.48
103637,11.77,-6.57,20.71,1.09,8.73,1.57
103672,12.00,-4.84,24.16,1.04,8.73,1.62
103707,11.81,-5.66,27.36,1.05,8.73,1.66
103747,9.34,-6.24,29.88,0.99,8.73,1.69
103782,7.18,-7.03,31.10,0.98,8.73,1.77
103818,3.34,-7.71,31.12,0.96,8.73,1.86
103852,0.60,-6.99,31.10,0.89,8.73,1.87
103887,-1.71,-5.80,30.23,0.83,8.73,1.82
103922,-4.07,-5.65,28.51,0.78,8.73,1.82
103957,-5.67,-3.94,26.02,0.76,8.73,1.78
103992,-6.80,-4.70,23.70,0.70,8.73,1.73
104027,-7.02,-3.32,20.88,0.71,8.73,1.67
104062,-6.44,-2.30,18.30,0.80,8.73,1.70
104097,-4.85,-3.82,15.53,0.86,8.73,1.75
104132,-2.35,-3.51,13.35,0.88,8.73,1.86
104167,1.17,-2.98,13.40,0.85,8.73,1.78
104202,5.54,-2.19,13.67,0.90,8.73,1.68
104237,7.80,-1.32,14.10,1.10,8.73,1.58
104272,9.81,-0.57,17.99,1.26,8.73,1.61
104307,11.84,-1.84,20.23,1.52,8.73,1.71
104343,12.63,-3.98,23.01,1.70,8.73,1.93
104377,12.60,-5.22,25.80,1.79,8.73,2.26
104412,11.30,-7.24,29.08,1.67,8.73,2.61
104447,7.41,-9.54,31.02,1.43,8.73,2.86
104482,3.74,-10.06,32.00,1.12,8.73,2.84
104517,2.43,-8.77,34.84,0.84,8.73,2.62
104552,-0.97,-7.32,35.07,0.81,8.73,2.34
104587,-3.53,-6.54,31.04,0.88,8.73,2.14
104622,-5.99,-6.02,28.55,1.02,8.73,2.05
104657,-5.90,-6.26,25.00,1.01,8.73,2.07
104692,-7.42,-5.84,22.95,1.00,8.73,2.11
104727,-5.99,-6.55,19.65,1.01,8.73,2.25
104762,-3.82,-7.04,16.47,0.92,8.73,2.33
104797,0.58,-6.36,14.98,0.78,8.73,2.23
104832,2.94,-4.96,13.82,0.65,8.73,2.15
104867,6.19,-3.80,14.43,0.64,8.73,1.90
104902,9.42,-2.30,15.35,0.77,8.73,1.69
104937,10.97,-1.16,17.90,0.98,8.73,1.60
104972,13.07,-0.89,20.03,1.23,8.73,1.60
105008,12.21,-3.86,22.55,1.36,8.73,1.71
105042,12.04,-5.91,25.77,1.33,8.73,1.83
105077,10.63,-5.38,28.13,1.24,8.73,1.91
105112,7.58,-7.91,31.62,1.16,8.73,1.86
105147,5.02,-5.10,32.82,1.13,8.73,1.63
105182,2.03,-5.67,33.97,1.29,8.73,1.42
105217,-0.94,-5.02,32.94,1.61,8.73,1.30
105252,-3.84,-6.21,31.76,1.92,8.73,1.34
105287,-5.55,-6.80,29.36,1.98,8.73,1.59
105323,-6.52,-8.25,25.62,1.76,8.73,1.88
105357,-7.94,-6.69,22.92,1.46,8.73,1.99
105392,-5.45,-4.95,19.62,1.20,8.73,1.97
105427,-3.69,-3.30,16.48,1.06,8.73,1.90
105462,-0.17,-2.06,15.18,1.00,8.73,1.80
105497,2.71,-2.43,14.32,0.98,8.73,1.76
105532,5.76,-1.28,13.88,1.02,8.73,1.69
105567,8.54,-0.67,14.92,1.12,8.73,1.60
105602,10.65,-1.04,18.64,1.31,8.73,1.58
105637,12.65,-1.82,21.47,1.43,8.73,1.68
105672,12.47,-5.39,23.91,1.39,8.73,1.82
105707,11.69,-7.35,26.72,1.17,8.73,1.84
105742,10.35,-7.98,29.25,0.89,8.73,1.65
105782,7.99,-6.25,32.97,0.82,8.73,1.24
105817,4.71,-4.44,34.63,0.98,8.73,1.06
105852,1.24,-5.95,33.97,1.14,8.73,1.24
105887,-1.99,-5.69,32.72,1.05,8.73,1.44
105922,-4.19,-3.98,30.70,0.94,8.73,1.57
105957,-5.78,-3.68,28.05,0.92,8.73,1.60
105992,-6.84,-3.52,25.17,0.88,8.73,1.59
106027,-5.64,-1.62,21.84,0.81,8.73,1.52
106062,-5.80,-0.28,18.39,0.81,8.73,1.43
106097,-3.28,-0.27,16.63,0.83,8.73,1.33
106132,0.07,-0.52,14.62,0.93,8.73,1.39
106167,0.06,-0.35,15.12,0.95,8.73,1.48
106202,6.23,-5.24,15.53,0.90,8.73,1.65
106237,9.63,-5.93,16.35,0.69,8.73,1.79
106272,10.65,-7.49,19.37,0.49,8.73,1.77
106308,12.43,-7.03,22.12,0.21,8.73,1.65
106343,13.33,-4.79,25.50,0.17,8.73,1.46
106377,12.25,-3.95,28.84,0.33,8.73,1.38
106412,8.91,-3.36,31.20,0.49,8.73,1.33
106447,6.90,-4.86,32.66,0.67,8.73,1.49
106482,3.92,-5.58,34.49,0.69,8.73,1.68
106517,0.34,-5.38,35.05,0.61,8.73,1.78
106552,-2.63,-5.27,32.68,0.51,8.73,1.79
106587,-4.65,-4.62,29.98,0.29,8.73,1.74
106622,-5.05,-1.16,26.19,0.16,8.73,1.57
106657,-6.83,0.19,23.61,0.07,8.73,1.33
106692,-6.69,1.69,21.71,0.16,8.73,1.12
106727,-5.75,2.32,18.67,0.42,8.73,1.07
106762,-2.54,-0.08,17.82,0.67,8.73,1.21
106797,-0.38,-2.95,15.66,0.80,8.73,1.51
106833,3.59,-2.82,15.57,0.79,8.73,1.70
106867,7.47,-4.68,17.36,0.78,8.73,1.75
106902,11.05,-4.58,19.23,0.75,8.73,1.72
106937,13.01,-3.61,22.45,0.80,8.73,1.68
106972,13.01,-3.56,25.10,0.96,8.73,1.67
107007,12.42,-3.68,28.17,1.10,8.73,1.75
107042,11.63,-6.11,31.11,1.22,8.73,1.89
107077,8.50,-6.74,33.16,1.16,8.73,1.94
107112,4.59,-6.95,33.14,1.09,8.73,1.86
107147,2.26,-6.25,34.68,1.12,8.73,1.72
107182,-0.91,-5.30,34.00,1.23,8.73,1.62
107217,-3.96,-6.20,32.40,1.43,8.73,1.63
107252,-5.70,-5.88,30.47,1.50,8.73,1.79
107287,-6.77,-6.94,26.89,1.52,8.73,1.97
107323,-7.17,-6.98,23.30,1.40,8.73,2.11
107357,-5.72,-6.46,20.85,1.26,8.73,2.22
107392,-4.13,-5.73,18.01,1.09,8.73,2.28
107427,0.16,-6.34,16.55,0.97,8.73,2.30
107462,2.61,-5.04,16.27,0.84,8.73,2.22
107497,5.50,-4.13,16.04,0.76,8.73,2.11
107533,9.43,-3.85,17.68,0.76,8.73,2.02
107567,11.44,-3.03,20.68,0.84,8.73,1.91
107602,13.08,-3.37,23.86,0.96,8.73,1.89
107637,12.79,-4.48,26.47,0.96,8.73,1.92
107672,11.37,-6.72,29.60,0.97,8.73,1.94
107707,8.54,-6.12,31.18,0.88,8.73,1.84
107742,6.23,-5.96,33.64,0.84,8.73,1.68
107777,3.73,-5.66,35.56,0.93,8.73,1.55
107817,-0.21,-5.18,35.98,1.01,8.73,1.56
107852,-3.25,-4.87,34.78,1.11,8.73,1.64
107887,-4.60,-4.65,31.01,1.06,8.73,1.70
107922,-6.44,-4.68,27.37,1.00,8.73,1.70
107957,-6.97,-2.93,24.39,0.93,8.73,1.67
107992,-5.16,-1.04,22.19,0.90,8.73,1.58
108027,-4.15,-0.24,19.60,0.93,8.73,1.49
108062,-0.73,1.13,18.56,1.03,8.73,1.42
108097,2.65,0.26,18.08,1.14,8.73,1.37
108132,5.19,-0.54,16.52,1.27,8.73,1.41
108167,8.88,-1.57,18.06,1.32,8.73,1.52
108202,11.57,-5.37,20.41,1.28,8.73,1.67
108237,13.59,-8.20,22.92,1.00,8.73,1.73
108272,12.75,-8.38,26.22,0.68,8.73,1.62
108308,12.24,-6.66,29.17,0.54,8.73,1.44
108343,9.79,-3.45,31.03,0.63,8.73,1.35
108377,7.51,-6.06,34.01,0.82,8.73,1.48
108412,3.94,-6.73,36.26,0.87,8.73,1.67
108447,0.20,-6.44,36.92,0.78,8.73,1.86
108482,-2.28,-5.93,34.39,0.64,8.73,1.90
108518,-5.42,-5.19,32.67,0.59,8.73,1.87
108552,-5.84,-3.54,29.72,0.60,8.73,1.77
108587,-6.64,-2.90,26.30,0.65,8.73,1.70
108622,-4.29,-2.83,22.33,0.72,8.73,1.70
108657,-4.30,-2.03,19.48,0.77,8.73,1.71
108692,-1.28,-2.50,17.92,0.82,8.73,1.75
108727,1.03,-4.16,16.79,0.81,8.73,1.82
108762,5.67,-5.45,16.21,0.75,8.73,1.89
108797,9.28,-5.63,18.36,0.59,8.73,1.90
108832,11.88,-4.27,20.06,0.58,8.73,1.80
108867,12.60,-4.05,22.34,0.61,8.73,1.71
108902,11.93,-2.55,27.17,0.78,8.73,1.70
108937,11.88,-6.38,30.33,0.90,8.73,1.79
108972,9.90,-4.50,33.20,0.89,8.73,1.86
109007,7.65,-6.54,35.64,0.90,8.73,1.90
109042,3.55,-6.89,36.80,0.77,8.73,1.99
109077,0.53,-7.68,37.15,0.63,8.73,2.06
109112,-2.47,-4.41,35.80,0.55,8.73,2.01
109147,-5.73,-4.79,33.64,0.55,8.73,1.91
109182,-4.99,-2.94,29.09,0.63,8.73,1.80
109217,-7.10,-3.14,25.81,0.76,8.73,1.78
109252,-5.44,-2.71,22.68,0.84,8.73,1.82
109287,-2.71,-3.69,19.26,0.93,8.73,1.90
109323,0.14,-3.77,17.26,0.89,8.73,1.97
109357,2.11,-4.52,16.11,0.83,8.73,2.04
109392,5.92,-4.95,16.52,0.69,8.73,2.11
109427,8.54,-5.43,18.54,0.73,8.73,1.98
109462,11.79,-5.14,21.79,0.64,8.73,1.93
109497,11.71,-3.92,25.02,0.74,8.73,1.88
109532,12.20,-5.23,28.02,0.88,8.73,1.89
109567,11.84,-5.39,31.35,0.97,8.73,1.94
109602,8.87,-7.35,33.75,0.92,8.73,1.98
109637,5.87,-6.64,35.72,0.85,8.73,1.98
109672,3.29,-7.63,37.61,0.81,8.73,2.00
109707,-0.82,-6.12,37.89,0.81,8.73,1.97
109742,-3.06,-6.01,34.21,0.75,8.73,1.91
109777,-4.88,-4.30,30.95,0.77,8.73,1.84
109812,-5.71,-3.65,27.64,0.81,8.73,1.81
109852,-8.49,-4.25,24.96,0.82,8.73,1.77
109887,-5.39,-2.44,22.08,0.85,8.73,1.78
109922,-2.71,-4.07,19.23,0.91,8.73,1.88
109957,1.69,-4.11,17.72,0.92,8.73,1.98
109992,5.69,-3.84,18.90,0.90,8.73,1.97
110027,7.97,-2.17,18.15,0.94,8.73,1.91
110062,10.00,-1.81,20.74,1.15,8.73,1.83
110097,12.21,-2.22,22.92,1.31,8.73,1.85
110132,12.49,-3.57,26.45,1.48,8.73,2.01
110167,12.37,-5.92,29.22,1.56,8.73,2.23
110202,12.58,-9.77,32.11,1.45,8.73,2.40
110237,7.75,-8.56,34.50,1.19,8.73,2.36
110272,4.51,-7.82,34.34,1.03,8.73,2.16
110307,2.01,-8.29,38.28,1.00,8.73,2.08
110343,-0.80,-5.75,34.55,1.04,8.73,1.98
110377,-3.45,-5.48,32.12,1.11,8.73,1.86
110412,-5.56,-6.31,29.65,1.20,8.73,1.90
110447,-6.34,-7.22,26.57,1.19,8.73,2.00
110482,-6.93,-5.27,24.56,1.10,8.73,2.08
110517,-4.43,-6.35,21.16,1.00,8.73,2.12
110552,-2.64,-3.72,18.50,0.89,8.73,2.10
110587,-0.86,-6.75,16.88,0.82,8.73,2.20
110622,4.44,-8.37,17.41,0.65,8.73,2.25
110657,7.20,-5.81,17.25,0.50,8.73,2.22
110692,10.02,-6.09,21.03,0.40,8.73,2.08
110727,12.80,-4.32,23.24,0.49,8.73,1.93
110762,12.56,-4.81,27.73,0.58,8.73,1.82
110797,12.97,-4.81,30.35,0.76,8.73,1.83
110833,11.67,-6.21,32.88,0.80,8.73,1.89
110867,8.84,-6.31,35.47,0.86,8.73,1.97
110902,5.31,-6.82,35.60,0.82,8.73,2.08
110937,1.03,-6.98,35.62,0.64,8.73,2.16
110972,-1.11,-7.65,33.83,0.46,8.73,2.15
111007,-4.17,-4.55,33.34,0.33,8.73,2.03
111042,-4.99,-2.98,30.49,0.32,8.73,1.86
111077,-6.25,-2.26,28.01,0.37,8.73,1.72
111112,-6.59,-2.13,25.21,0.48,8.73,1.61
111147,-4.67,-0.96,21.12,0.62,8.73,1.63
111182,-1.38,-2.34,18.66,0.73,8.73,1.64
111217,1.50,-4.06,17.40,0.73,8.73,1.71
111252,4.09,-3.10,16.21,0.72,8.73,1.71
111287,7.41,-4.04,18.43,0.64,8.73,1.74
111323,10.55,-5.10,20.89,0.59,8.73,1.72
111357,12.32,-6.76,22.84,0.44,8.73,1.64
111392,11.71,-5.93,27.00,0.36,8.73,1.48
111427,13.58,-5.73,29.85,0.42,8.73,1.30
111462,10.68,-3.76,33.41,0.56,8.73,1.18
111497,8.31,-4.63,35.74,0.79,8.73,1.14
111532,5.01,-4.97,37.57,0.99,8.73,1.22
111567,0.97,-5.80,37.85,1.06,8.73,1.45
111602,-1.60,-4.68,36.07,1.14,8.73,1.58
111637,-5.37,-5.34,33.59,1.11,8.73,1.68
111672,-4.99,-4.82,30.67,1.07,8.73,1.75
111707,-6.73,-3.63,27.98,1.03,8.73,1.79
111742,-5.21,-3.15,24.47,1.03,8.73,1.81
111777,-3.29,-2.89,20.78,1.00,8.73,1.85
111812,-0.91,-1.81,18.77,1.04,8.73,1.82
111847,2.22,-2.54,18.09,1.00,8.73,1.83
111887,6.29,-2.24,17.93,0.99,8.73,1.81
111922,10.01,-4.62,19.67,0.99,8.73,1.84
111957,11.81,-4.63,22.91,0.93,8.73,1.82
111992,13.10,-4.61,25.09,0.96,8.73,1.81
112027,12.36,-4.86,27.81,0.88,8.73,1.82
112062,11.90,-7.19,31.48,0.92,8.73,1.79
112097,9.62,-5.07,35.18,0.87,8.73,1.78
112132,6.35,-6.30,36.38,0.91,8.73,1.79
112167,3.26,-5.89,38.42,0.94,8.73,1.78
112202,-0.32,-6.21,37.05,0.91,8.73,1.79
112237,-2.78,-4.11,34.71,1.00,8.73,1.75
112272,-5.66,-4.76,32.49,1.05,8.73,1.77
112307,-4.99,-5.32,28.36,1.10,8.73,1.82
112343,-6.90,-4.47,24.90,1.04,8.73,1.86
112377,-4.56,-2.26,21.81,1.11,8.73,1.88
112412,-1.77,-3.33,18.83,1.05,8.73,1.89
112447,1.97,-4.87,17.32,1.05,8.73,1.96
112482,5.60,-5.86,17.56,0.93,8.73,2.08
112517,6.22,-3.38,18.58,0.83,8.73,2.06
112552,9.28,-5.59,19.87,0.78,8.73,2.04
112586,11.64,-5.98,22.29,0.70,8.73,1.98
112621,12.50,-5.53,25.55,0.71,8.73,1.95
112656,11.57,-5.79,30.98,0.70,8.73,1.87
112691,12.29,-7.96,34.94,0.69,8.73,1.82
112725,9.11,-5.28,37.71,0.71,8.73,1.78
112760,5.23,-7.34,37.27,0.74,8.73,1.84
112795,1.58,-6.80,37.29,0.70,8.73,1.87
112831,-1.21,-6.23,35.67,0.47,8.73,1.93
112865,-4.29,-5.16,35.05,0.29,8.73,1.93
112899,-5.37,-2.77,33.12,0.16,8.73,1.75
112934,-6.24,-0.22,29.49,0.19,8.73,1.54
112969,-4.90,1.94,26.09,0.31,8.73,1.35
113004,-2.57,0.06,21.84,0.57,8.73,1.37
113039,0.06,-1.65,18.98,0.80,8.73,1.55
113074,0.93,-4.38,17.39,0.82,8.73,1.80
113109,4.02,-6.08,17.77,0.76,8.73,1.95
113144,7.25,-4.76,18.65,0.69,8.73,1.97
113179,10.05,-3.84,23.04,0.87,8.73,1.90
113213,12.90,-2.92,27.00,0.99,8.73,1.90
113248,13.21,-4.48,31.71,1.27,8.73,2.09
113283,12.73,-6.86,33.93,1.45,8.73,2.37
113319,8.32,-7.77,35.49,1.35,8.73,2.65
113353,6.33,-9.62,36.57,1.11,8.73,2.70
113388,2.39,-9.56,37.60,0.91,8.73,2.55
113423,-0.08,-7.11,37.42,0.93,8.73,2.26
113458,-3.28,-5.10,36.06,1.09,8.73,2.07
113493,-6.44,-7.92,32.40,1.32,8.73,2.07
113527,-7.46,-6.73,29.31,1.51,8.73,2.17
113562,-5.79,-8.42,26.14,1.46,8.73,2.45
113597,-5.07,-9.20,21.29,1.43,8.73,2.64
113632,-3.75,-7.88,19.90,1.11,8.73,2.57
113667,-0.19,-6.96,19.47,0.94,8.73,2.39
113702,5.07,-3.42,20.37,0.89,8.73,2.12
113737,7.80,-2.96,20.20,0.96,8.73,1.97
113772,10.68,-2.09,24.00,1.10,8.73,1.93
113806,12.32,-6.51,26.01,1.14,8.73,1.94
113841,13.98,-6.32,30.24,1.14,8.73,1.95
113876,12.91,-4.69,33.07,1.14,8.73,2.04
113916,10.12,-5.44,35.74,1.12,8.73,2.12
113951,6.70,-8.53,36.43,1.08,8.73,2.08
113986,3.58,-7.43,37.74,1.01,8.73,1.94
114021,0.12,-6.70,38.35,1.03,8.73,1.90
114056,-2.56,-4.98,36.61,1.26,8.73,1.82
114091,-5.27,-5.76,34.37,1.33,8.73,1.85
114126,-6.40,-7.25,31.01,1.37,8.73,2.00
114161,-5.42,-5.75,26.69,1.30,8.73,2.04
114196,-4.51,-6.36,23.70,1.15,8.73,2.03
114231,-2.84,-1.70,21.36,1.02,8.73,1.85
114265,1.41,-0.02,20.58,1.03,8.73,1.67
114300,5.23,0.10,21.10,1.19,8.73,1.52
114336,8.06,-0.85,21.41,1.34,8.73,1.57
114370,11.17,-4.27,23.05,1.35,8.73,1.72
114405,12.46,-6.53,25.02,1.23,8.73,1.86
114440,12.87,-7.68,28.41,1.01,8.73,1.82
114475,12.37,-7.12,32.02,0.84,8.73,1.75
114510,10.95,-6.26,35.67,0.86,8.73,1.60
114545,8.77,-6.44,38.33,0.85,8.73,1.39
114580,4.50,-5.82,38.80,1.06,8.73,1.26
114615,1.51,-4.51,38.81,1.32,8.73,1.30
114650,-2.42,-6.90,36.60,1.36,8.73,1.50
114685,-5.08,-6.18,35.89,1.36,8.73,1.65
114720,-5.24,-4.12,31.10,1.29,8.73,1.78
114755,-7.30,-6.24,28.32,1.11,8.73,1.77
114790,-3.91,-0.33,26.33,1.01,8.73,1.66
114825,-2.20,-0.76,22.92,0.91,8.73,1.45
114860,1.84,0.61,21.45,1.13,8.73,1.35
114895,4.38,-0.19,21.49,1.31,8.73,1.30
114930,7.06,-0.68,20.93,1.37,8.73,1.50
114965,10.30,-5.84,23.07,1.44,8.73,1.70
115000,12.23,-5.43,26.10,1.24,8.73,1.82
115035,13.46,-6.25,29.18,1.07,8.73,1.87
115070,12.04,-8.48,31.65,0.98,8.73,1.87
115105,11.80,-5.71,35.91,0.99,8.73,1.83
115140,8.87,-7.19,38.15,0.97,8.73,1.88
115175,5.04,-8.21,39.37,0.97,8.73,1.98
115210,0.85,-6.76,39.54,0.91,8.73,2.02
115245,-2.13,-7.65,38.18,0.77,8.73,2.05
115280,-4.26,-4.83,34.43,0.76,8.73,2.01
115316,-4.70,-4.85,31.49,0.65,8.73,1.89
115350,-5.92,-4.37,28.04,0.69,8.73,1.88
115385,-7.01,-3.81,25.33,0.79,8.73,1.82
115420,-3.84,-0.98,22.64,0.80,8.73,1.85
115455,1.85,-4.48,21.14,0.84,8.73,1.90
115490,4.65,-4.76,19.15,0.81,8.73,1.92
115525,7.90,-4.41,20.50,0.74,8.73,1.99
115560,10.79,-7.57,21.92,0.63,8.73,2.00
115595,12.70,-6.11,25.82,0.55,8.73,1.89
115630,12.72,-4.35,28.88,0.58,8.73,1.77
115665,12.43,-5.83,32.71,0.75,8.73,1.77
115700,11.41,-5.29,36.76,0.87,8.73,1.81
115735,8.49,-7.80,38.03,0.92,8.73,1.83
115770,4.94,-7.51,38.80,0.92,8.73,1.93
115805,1.12,-5.72,39.65,0.94,8.73,1.94
115840,-1.84,-7.94,37.23,0.97,8.73,1.93
115875,-4.27,-3.97,35.62,0.99,8.73,1.92
115910,-5.58,-4.75,31.50,1.01,8.73,1.95
115950,-5.64,-3.23,27.18,1.01,8.73,1.96
115985,-3.42,-4.61,23.09,0.91,8.73,1.99
116020,-0.68,-4.10,20.10,0.98,8.73,1.97
116055,2.92,-1.46,19.60,0.88,8.73,1.88
116090,4.98,-2.08,19.53,0.87,8.73,1.84
116125,6.42,-4.15,17.80,0.87,8.73,1.85
116160,8.88,-5.28,21.33,0.86,8.73,1.91
116195,12.03,-4.90,24.96,0.82,8.73,1.89
116230,13.43,-4.97,28.77,0.77,8.73,1.89
116265,11.97,-7.36,32.11,0.86,8.73,1.90
116300,11.64,-4.59,36.33,0.94,8.73,1.97
116336,8.32,-7.51,37.58,0.95,8.73,2.03
116370,4.79,-7.70,38.62,0.88,8.73,2.11
116441,-1.26,-6.23,35.80,0.77,8.73,2.04
116476,-4.46,-4.77,34.64,0.80,8.73,1.95
116510,-7.12,-4.71,31.88,0.99,8.73,1.97
116545,-5.88,-4.29,26.69,1.13,8.73,1.99
116580,-3.65,-5.27,22.95,1.17,8.73,2.20
116615,-4.46,-7.31,20.20,1.19,8.73,2.37
116650,-1.41,-7.20,18.56,0.97,8.73,2.44
116685,1.77,-5.60,17.92,0.83,8.73,2.37
116720,5.82,-3.53,18.39,0.79,8.73,2.19
116755,8.17,-4.39,19.83,0.84,8.73,2.04
116790,11.85,-3.44,23.45,0.88,8.73,1.99
116825,12.32,-5.10,27.29,0.97,8.73,2.02
116860,12.84,-7.18,30.74,1.03,8.73,2.04
116895,12.07,-5.83,34.65,1.00,8.73,2.10
116930,8.94,-8.11,36.89,0.94,8.73,2.11
116965,5.61,-7.03,37.32,0.89,8.73,2.06
117000,2.25,-6.33,37.81,0.85,8.73,1.99
117035,-0.65,-6.47,35.44,0.90,8.73,1.91
117070,-3.54,-5.44,33.96,0.87,8.73,1.85
117105,-4.58,-4.87,31.13,0.96,8.73,1.85
117140,-6.45,-4.58,28.15,0.94,8.73,1.82
117175,-4.76,-4.46,24.62,0.96,8.73,1.82
117210,-5.25,-1.89,21.94,0.94,8.73,1.79
117245,-1.97,-1.95,19.98,0.98,8.73,1.72
117280,1.91,-1.56,18.77,1.00,8.73,1.64
117316,7.06,-0.30,19.24,1.10,8.73,1.58
117350,9.41,-0.89,18.81,1.18,8.73,1.59
117385,10.75,-5.23,21.13,1.26,8.73,1.68
117420,12.28,-5.09,24.19,1.13,8.73,1.76
117455,12.63,-6.22,28.02,1.09,8.73,1.83
117490,12.45,-6.33,31.95,1.02,8.73,1.76
117525,10.26,-7.40,34.51,0.92,8.73,1.69
117560,7.95,-5.63,36.37,0.97,8.73,1.59
117595,4.34,-6.40,37.76,1.06,8.73,1.56
117631,0.87,-5.48,38.23,1.18,8.73,1.56
117666,-2.09,-6.63,35.75,1.17,8.73,1.73
117700,-4.43,-5.69,33.94,1.33,8.73,1.81
117735,-5.99,-6.07,29.62,1.31,8.73,1.87
117770,-7.83,-6.66,27.20,1.24,8.73,2.00
117805,-4.80,-4.37,24.05,1.22,8.73,2.05
117840,-3.35,-4.51,20.30,1.12,8.73,2.06
117875,-0.05,-2.26,19.12,1.07,8.73,1.95
117910,3.42,-3.33,19.12,1.05,8.73,1.87
117945,6.42,-2.13,17.77,1.11,8.73,1.81
117985,10.53,-3.24,21.60,1.14,8.73,1.85
118020,13.00,-5.43,23.35,1.07,8.73,1.88
118055,13.17,-6.09,26.70,1.04,8.73,1.89
118090,12.67,-5.53,29.46,0.98,8.73,1.89
118125,11.29,-5.81,31.74,0.94,8.73,1.87
118160,9.08,-7.37,33.78,0.92,8.73,1.87
118195,5.16,-6.57,35.62,0.87,8.73,1.89
118230,2.91,-7.11,36.92,0.76,8.73,1.99
118265,-0.73,-5.05,36.74,0.67,8.73,2.00
118300,-4.27,-5.79,35.74,0.60,8.73,1.93
118335,-4.18,-3.47,31.43,0.52,8.73,1.82
118370,-5.87,-4.03,27.78,0.46,8.73,1.70
118405,-5.82,-0.30,25.43,0.47,8.73,1.57
118440,-4.33,-1.17,21.82,0.63,8.73,1.54
118475,-1.43,-1.38,19.29,0.76,8.73,1.60
118510,2.34,-3.92,17.05,0.85,8.73,1.77
118545,5.64,-5.57,16.75,0.77,8.73,1.89
118580,7.86,-5.47,17.98,0.66,8.73,1.92
118615,10.86,-6.96,19.22,0.52,8.73,1.86
118650,12.55,-5.39,22.24,0.44,8.73,1.76
118685,12.77,-3.63,24.75,0.42,8.73,1.65
118720,11.07,-5.84,28.29,0.58,8.73,1.58
118755,11.81,-5.05,32.81,0.76,8.73,1.59
118790,8.80,-4.62,35.49,0.82,8.73,1.73
118825,5.80,-7.32,36.89,0.89,8.73,1.87
118860,1.81,-6.35,37.60,0.89,8.73,1.89
118895,-1.15,-8.08,34.96,0.82,8.73,1.89
118930,-3.60,-4.49,32.97,0.82,8.73,1.84
118965,-4.70,-4.01,30.00,0.89,8.73,1.79
119000,-6.77,-4.85,27.10,0.92,8.73,1.78
119035,-5.88,-4.50,24.25,0.97,8.73,1.80
119070,-5.07,-3.33,20.81,0.95,8.73,1.83
119105,-1.92,-2.94,18.14,0.98,8.73,1.85
119140,2.92,-3.15,17.05,0.95,8.73,1.77
119175,6.05,-2.25,16.44,1.00,8.73,1.66
119210,7.50,-0.76,17.40,1.06,8.73,1.72
119245,10.31,-2.70,21.14,1.22,8.73,1.70
119280,12.03,-3.74,23.00,1.28,8.73,1.81
119315,12.60,-5.03,26.30,1.25,8.73,1.92
119350,11.31,-6.95,30.04,1.18,8.73,2.01
119385,11.40,-6.86,33.65,1.08,8.73,2.07
119420,8.79,-7.84,36.15,1.05,8.73,2.15
119455,4.66,-7.89,36.43,0.98,8.73,2.16
119490,1.55,-8.43,37.22,0.91,8.73,2.14
119525,-1.23,-4.25,34.62,0.90,8.73,2.01
119560,-4.49,-5.89,32.90,1.00,8.73,1.92
119595,-5.51,-5.46,29.66,1.07,8.73,1.90
119630,-6.33,-6.48,25.34,1.12,8.73,1.97
119665,-5.17,-4.57,22.69,1.08,8.73,2.05
119700,-4.17,-5.22,19.37,1.03,8.73,2.09
119735,-1.98,-5.06,17.62,0.95,8.73,2.05
119770,1.77,-3.68,16.80,0.89,8.73,2.00
119805,5.38,-2.97,16.70,0.87,8.73,1.90
119841,7.81,-0.65,16.91,0.94,8.73,1.76
119875,9.15,-6.90,19.25,0.99,8.73,1.78
119910,12.86,-3.10,24.00,0.97,8.73,1.75
119945,12.42,-4.80,26.83,0.92,8.73,1.75
119980,11.91,-6.86,30.49,0.88,8.73,1.68
120020,10.12,-6.35,32.73,0.82,8.73,1.57
120055,7.71,-5.78,34.45,0.88,8.73,1.47
120090,4.18,-6.40,35.58,1.01,8.73,1.41
120125,0.87,-5.30,37.15,1.16,8.73,1.50
120160,-2.34,-6.37,34.07,1.13,8.73,1.64
120195,-4.72,-5.52,30.56,1.01,8.73,1.72
120230,-5.99,-4.99,27.34,0.88,8.73,1.75
120265,-5.44,-2.85,24.44,0.79,8.73,1.68
120300,-5.25,-0.56,22.14,0.72,8.73,1.57
120336,-5.47,-2.04,19.31,0.80,8.73,1.54
120371,-5.81,-1.06,20.23,0.90,8.73,1.62
120405,0.74,-4.04,17.65,0.95,8.73,1.70
120440,3.83,-2.32,15.80,0.97,8.73,1.81
120475,9.26,-2.61,18.83,1.03,8.73,1.80
120510,12.15,-4.39,21.26,1.00,8.73,1.78
120545,13.50,-4.57,23.60,0.99,8.73,1.77
120580,12.87,-5.52,26.14,0.98,8.73,1.79
120615,11.97,-5.76,29.04,0.94,8.73,1.78
120650,10.51,-6.65,31.96,0.89,8.73,1.74
120685,7.91,-6.57,34.29,0.87,8.73,1.67
120720,4.64,-6.31,35.82,0.91,8.73,1.64
120755,1.05,-6.54,35.50,0.93,8.73,1.70
120790,-2.03,-4.86,33.61,0.91,8.73,1.73
120825,-4.11,-4.87,31.21,0.83,8.73,1.75
120860,-5.70,-3.18,28.72,0.82,8.73,1.75
120895,-6.60,-4.47,26.03,0.80,8.73,1.77
120930,-5.61,-3.48,22.63,0.91,8.73,1.84
120965,-6.29,-2.89,19.85,0.94,8.73,1.88
121000,-1.19,-3.32,18.62,0.95,8.73,1.88
121035,2.83,-4.26,16.29,0.90,8.73,1.92
121070,6.07,-4.05,16.07,0.86,8.73,1.89
121105,7.80,-4.73,15.99,0.82,8.73,1.91
121140,10.34,-3.54,19.08,0.78,8.73,1.88
121175,12.66,-4.77,22.38,0.83,8.73,1.84
121210,13.48,-4.75,25.65,0.86,8.73,1.81
121245,12.60,-5.11,28.80,0.94,8.73,1.82
121280,10.67,-6.16,30.77,0.97,8.73,1.90
121316,8.88,-6.23,34.50,0.96,8.73,1.98
121350,5.40,-6.90,33.09,0.89,8.73,2.06
121385,2.28,-7.88,35.32,0.76,8.73,2.17
121420,-1.14,-5.44,35.54,0.68,8.73,2.07
121455,-3.67,-5.21,33.30,0.70,8.73,1.96
121490,-4.90,-3.42,29.53,0.84,8.73,1.85
121525,-6.53,-4.54,26.13,0.98,8.73,1.84
121560,-6.10,-4.73,23.17,1.01,8.73,1.96
121595,-4.88,-4.53,20.23,1.06,8.73,2.05
121630,-3.26,-5.42,17.20,0.98,8.73,2.08
121665,0.00,-4.17,15.93,0.88,8.73,2.11
121700,3.38,-3.67,16.30,0.80,8.73,2.08
121735,6.45,-4.50,16.52,0.75,8.73,1.99
121770,10.12,-3.73,18.05,0.78,8.73,1.91
121805,12.25,-5.69,20.87,0.75,8.73,1.86
121840,12.54,-3.69,24.02,0.71,8.73,1.81
121875,12.41,-6.67,27.29,0.78,8.73,1.78
121910,12.07,-5.44,30.68,0.75,8.73,1.72
121945,9.24,-5.06,32.86,0.78,8.73,1.70
121980,5.84,-6.30,33.66,0.82,8.73,1.70
122015,2.95,-6.05,36.62,0.84,8.73,1.70
122055,-0.57,-5.80,36.28,0.80,8.73,1.75
122091,-3.37,-5.23,33.72,0.78,8.73,1.76
122125,-5.18,-4.58,30.18,0.71,8.73,1.72
122160,-5.32,-3.03,26.42,0.75,8.73,1.64
122195,-6.96,-3.23,23.14,0.76,8.73,1.57
122230,-5.03,-1.04,20.97,0.83,8.73,1.54
122265,-2.99,-0.98,17.71,0.90,8.73,1.50
122300,1.19,-0.40,16.66,0.96,8.73,1.42
122336,4.87,0.69,17.20,1.07,8.73,1.32
122370,7.75,1.08,17.00,1.27,8.73,1.30
122405,9.20,-3.24,17.54,1.35,8.73,1.43
122440,12.00,-4.73,19.34,1.34,8.73,1.59
122475,12.12,-4.22,22.23,1.23,8.73,1.72
122510,12.16,-6.21,25.88,1.18,8.73,1.82
122545,11.54,-6.41,29.44,1.14,8.73,1.86
122580,9.26,-6.55,32.08,1.10,8.73,1.87
122615,5.79,-7.05,34.34,1.03,8.73,1.87
122650,3.45,-7.54,36.01,0.99,8.73,1.87
122685,0.31,-7.32,35.99,1.00,8.73,1.86
122720,-2.47,-6.13,33.46,0.96,8.73,1.93
122755,-5.38,-6.09,31.79,0.86,8.73,1.96
122790,-6.14,-4.90,27.59,0.75,8.73,1.92
122826,-6.84,-3.91,24.04,0.73,8.73,1.86
122860,-5.15,-2.98,21.36,0.76,8.73,1.83
122895,-4.26,-2.66,18.45,0.79,8.73,1.87
122930,-2.01,-4.86,16.51,0.77,8.73,1.93
122965,1.35,-5.33,16.19,0.68,8.73,2.00
123000,4.85,-6.17,15.33,0.59,8.73,2.01
123035,7.79,-5.07,17.41,0.42,8.73,1.99
123070,10.53,-5.67,20.87,0.35,8.73,1.85
123105,13.16,-5.71,23.45,0.33,8.73,1.67
123140,13.35,-4.58,27.32,0.39,8.73,1.51
123175,11.77,-5.43,30.13,0.47,8.73,1.36
123210,10.59,-4.76,32.58,0.59,8.73,1.30
123245,7.64,-4.10,34.97,0.77,8.73,1.32
123280,4.11,-5.87,35.46,0.86,8.73,1.55
123316,0.71,-5.43,36.49,0.83,8.73,1.73
123350,-1.99,-5.64,33.48,0.71,8.73,1.85
123385,-4.71,-4.81,30.59,0.48,8.73,1.84
123420,-5.28,-2.57,27.60,0.46,8.73,1.73
123455,-5.97,-1.26,25.28,0.56,8.73,1.65
123490,-7.91,-1.38,23.22,0.74,8.73,1.69
123525,-4.85,-1.70,20.08,0.89,8.73,1.78
123560,-2.40,-4.09,17.60,0.90,8.73,1.92
123595,1.52,-4.46,16.83,0.86,8.73,1.99
123630,5.58,-3.49,17.29,0.81,8.73,2.03
123665,9.54,-3.35,17.69,0.80,8.73,1.95
123700,11.92,-4.99,19.90,0.83,8.73,1.87
123735,12.60,-3.48,24.08,0.84,8.73,1.82
123770,13.57,-4.59,26.65,0.90,8.73,1.83
123805,12.53,-6.08,29.72,0.90,8.73,1.83
123840,10.72,-5.86,33.07,0.90,8.73,1.80
123875,7.80,-6.97,35.10,0.88,8.73,1.76
123910,4.47,-6.10,35.67,0.90,8.73,1.68
123945,1.03,-6.14,35.21,0.98,8.73,1.63
123980,-1.56,-4.65,34.45,1.07,8.73,1.62
124015,-3.89,-3.94,32.57,1.16,8.73,1.67
124050,-6.07,-4.64,28.70,1.26,8.73,1.73
124090,-6.94,-3.60,26.15,1.29,8.73,1.88
124125,-6.16,-5.12,22.10,1.29,8.73,1.98
124160,-4.24,-6.04,19.03,1.18,8.73,2.03
124195,0.20,-4.39,17.89,1.09,8.73,2.03
124230,1.32,-3.90,16.47,1.03,8.73,1.99
124265,5.39,-2.60,17.51,1.04,8.73,1.96
124300,8.31,-2.66,18.30,1.10,8.73,1.91
124336,10.98,-3.77,19.84,1.13,8.73,1.91
124370,12.40,-4.50,23.96,1.17,8.73,1.96
124405,14.21,-5.61,26.53,1.17,8.73,1.99
124440,11.76,-6.11,28.98,1.09,8.73,2.04
124475,11.83,-7.76,32.27,1.04,8.73,2.06
124510,8.06,-7.02,33.79,0.92,8.73,2.00
124545,4.43,-7.13,33.47,0.86,8.73,1.94
124580,1.04,-7.35,34.50,0.84,8.73,1.91
124615,-2.13,-5.11,34.88,0.81,8.73,1.85
124650,-3.51,-5.07,32.42,0.88,8.73,1.81
124685,-4.11,-4.87,29.49,0.85,8.73,1.80
124720,-6.97,-4.19,27.31,0.85,8.73,1.74
124755,-6.03,-3.43,25.36,0.85,8.73,1.72
124790,-6.05,-2.85,20.75,0.90,8.73,1.77
124825,-2.16,-2.86,17.85,0.94,8.73,1.75
124860,2.57,-2.88,16.08,0.92,8.73,1.76
124895,5.95,-2.15,16.02,0.94,8.73,1.75
124930,8.94,-3.73,17.86,0.95,8.73,1.75
124965,10.75,-3.16,19.19,0.98,8.73,1.74
125000,12.71,-4.45,20.82,0.98,8.73,1.80
125035,12.12,-6.05,24.76,0.95,8.73,1.83
125070,13.21,-5.88,28.53,0.85,8.73,1.79
125105,11.49,-7.10,31.30,0.79,8.73,1.78
125140,6.44,-7.35,32.45,0.80,8.73,1.71
125175,5.59,-5.62,37.10,0.89,8.73,1.59
125210,2.37,-5.11,34.59,0.84,8.73,1.63
125245,-0.84,-7.16,33.47,0.89,8.73,1.70
125280,-4.05,-6.36,33.55,0.84,8.73,1.72
125316,-5.81,-5.00,30.58,0.83,8.73,1.67
125350,-7.46,-4.94,27.82,0.77,8.73,1.63
125385,-5.38,-2.10,24.63,0.77,8.73,1.55
125420,-5.30,-1.60,20.12,0.82,8.73,1.46
125455,-4.47,0.49,18.07,0.89,8.73,1.41
125490,0.73,-0.63,17.13,1.03,8.73,1.40
125525,4.16,-0.71,15.39,1.14,8.73,1.35
125560,7.24,0.12,16.58,1.29,8.73,1.39
125595,10.14,-3.19,19.17,1.45,8.73,1.48
125630,11.85,-5.17,20.28,1.42,8.73,1.67
125665,11.90,-6.06,24.83,1.34,8.73,1.81
125700,12.58,-8.36,27.85,1.18,8.73,1.88
125735,11.47,-6.47,30.97,1.11,8.73,1.96
125770,9.31,-7.57,32.73,1.05,8.73,2.03
125805,5.41,-8.53,34.93,1.00,8.73,2.18
125841,2.34,-8.38,35.35,0.77,8.73,2.37
125875,0.33,-7.60,32.81,0.57,8.73,2.38
125910,-3.13,-6.30,32.42,0.55,8.73,2.18
125945,-6.27,-4.68,31.27,0.63,8.73,2.04
125980,-7.26,-3.81,28.19,0.81,8.73,1.97
126015,-7.83,-5.11,24.72,1.07,8.73,2.05
126050,-3.50,-7.63,19.90,1.12,8.73,2.16
126085,-2.70,-5.53,17.24,1.01,8.73,2.17
126125,2.06,-4.42,16.14,0.93,8.73,2.08
126160,3.90,-2.54,14.97,0.93,8.73,1.84
126195,6.04,-2.74,15.67,1.02,8.73,1.76
126230,9.02,-2.87,17.63,1.12,8.73,1.76
126265,10.00,-3.74,21.15,1.22,8.73,1.82
126300,12.25,-4.60,23.51,1.27,8.73,1.91
126336,12.91,-6.57,25.90,1.23,8.73,2.03
126370,11.26,-8.04,28.63,1.12,8.73,2.14
126405,9.11,-9.36,32.60,0.97,8.73,2.17
126440,6.43,-8.26,34.35,0.79,8.73,2.14
126475,3.68,-8.37,33.86,0.66,8.73,2.09
126510,-0.35,-7.20,34.03,0.61,8.73,1.93
126545,-3.17,-5.44,31.24,0.60,8.73,1.76
126580,-5.41,-5.65,28.71,0.55,8.73,1.62
126615,-7.16,-5.44,26.91,0.38,8.73,1.50
126650,-7.04,-1.12,24.33,0.10,8.73,1.23
126685,-5.88,2.63,22.23,0.10,8.73,0.87
126720,-5.12,4.10,18.91,0.35,8.73,0.58
126755,-2.01,4.78,17.76,0.79,8.73,0.58
126790,3.07,2.35,17.70,1.13,8.73,0.76
126826,5.80,0.54,16.42,1.41,8.73,0.96
126860,9.02,-1.04,18.50,1.70,8.73,1.07
126895,11.78,1.02,20.93,2.04,8.73,1.29
126930,13.47,-3.56,23.68,2.27,8.73,1.68
126965,12.63,-8.43,27.87,2.24,8.73,2.07
127000,12.02,-10.89,30.66,1.93,8.73,2.39
127035,8.98,-11.82,33.95,1.59,8.73,2.46
127070,6.64,-10.39,35.81,1.26,8.73,2.28
127105,1.54,-9.23,36.39,1.17,8.73,2.05
127140,-0.08,-9.53,34.80,1.14,8.73,1.97
127175,-3.53,-10.28,32.10,0.98,8.73,2.03
127210,-6.13,-7.64,30.23,0.70,8.73,2.03
127245,-6.64,-5.99,27.38,0.56,8.73,1.91
127280,-7.17,-3.83,24.12,0.49,8.73,1.69
127316,-6.58,-3.19,20.76,0.52,8.73,1.50
127350,-2.14,-1.28,18.16,0.57,8.73,1.29
127385,0.54,0.87,16.91,0.77,8.73,1.07
127420,3.44,2.34,16.85,1.04,8.73,0.95
127455,6.69,0.90,17.26,1.38,8.73,0.98
127490,8.94,-1.48,20.37,1.55,8.73,1.24
127525,12.35,-5.53,21.55,1.59,8.73,1.56
127560,11.82,-7.16,26.00,1.52,8.73,1.74
127595,13.18,-8.28,28.68,1.44,8.73,1.89
127630,11.42,-9.49,31.49,1.35,8.73,2.04
127665,7.48,-10.27,34.17,1.26,8.73,2.17
127700,5.86,-10.42,34.01,1.08,8.73,2.44
127735,1.83,-10.68,31.64,0.72,8.73,2.66
127770,-3.06,-12.33,34.70,0.34,8.73,2.74
127805,-4.12,-8.26,33.18,0.00,8.73,2.59
127841,-4.00,-3.26,29.92,-0.04,8.73,2.27
127875,-8.21,-4.93,26.06,0.15,8.73,1.98
127910,-6.19,-2.24,25.12,0.25,8.73,1.82
127945,-5.43,-2.14,19.79,0.34,8.73,1.64
127980,-2.50,-2.36,16.46,0.40,8.73,1.46
128015,2.64,-1.01,16.58,0.52,8.73,1.31
128050,6.18,-1.54,15.70,0.65,8.73,1.29
128085,7.95,-2.95,15.58,0.75,8.73,1.32
128120,9.37,-2.96,18.89,0.82,8.73,1.35
128160,12.27,-4.22,21.81,0.86,8.73,1.39
128195,12.10,-4.68,24.34,0.93,8.73,1.41
128230,11.48,-4.85,26.77,1.02,8.73,1.44
128265,11.66,-5.09,29.00,1.14,8.73,1.57
128300,9.44,-7.65,31.13,1.17,8.73,1.71
128335,5.77,-7.42,32.35,1.09,8.73,1.87
128370,2.32,-7.52,33.15,0.99,8.73,1.97
128405,-1.11,-7.11,32.93,1.02,8.73,1.94
128440,-3.83,-6.91,31.26,1.03,8.73,1.90
128475,-5.33,-7.27,28.88,0.94,8.73,1.92
128510,-6.93,-6.22,26.60,0.90,8.73,1.96
128545,-5.71,-5.55,23.08,0.84,8.73,1.94
128580,-5.21,-4.71,19.93,0.73,8.73,1.87
128615,-4.38,-2.65,16.74,0.73,8.73,1.83
128650,0.45,-3.28,15.61,0.74,8.73,1.79
128685,1.53,-3.98,13.67,0.72,8.73,1.80
128720,2.97,-4.27,12.99,0.67,8.73,1.84
128755,6.60,-3.51,15.87,0.64,8.73,1.82
128790,10.44,-3.19,16.93,0.76,8.73,1.72
128826,11.94,-2.78,21.07,0.96,8.73,1.68
128860,13.38,-4.38,24.34,1.15,8.73,1.72
128895,12.24,-2.72,25.37,1.16,8.73,1.88
128930,10.05,-8.48,30.08,1.25,8.73,2.11
128965,8.07,-6.90,33.43,1.07,8.73,2.15
129000,4.93,-8.07,32.88,0.89,8.73,2.19
129035,2.26,-8.44,34.21,0.75,8.73,2.23
129070,-0.72,-6.42,33.48,0.66,8.73,2.13
129105,-4.75,-6.50,33.03,0.62,8.73,2.02
129140,-5.29,-4.81,29.09,0.68,8.73,1.96
129175,-8.06,-4.77,27.09,0.75,8.73,1.91
129210,-7.06,-4.75,23.20,0.84,8.73,1.93
129245,-5.18,-6.04,19.73,0.90,8.73,2.04
129280,-3.51,-4.31,16.74,0.87,8.73,2.05
129315,0.55,-4.21,15.05,0.83,8.73,2.02
129350,4.06,-3.54,15.21,0.80,8.73,1.86
129385,6.21,-1.61,15.65,0.87,8.73,1.71
129420,7.96,-2.16,16.55,1.04,8.73,1.62
129455,10.52,-4.10,19.56,1.13,8.73,1.65
129490,11.92,-3.35,22.31,1.16,8.73,1.71
129525,11.97,-5.43,26.20,1.20,8.73,1.78
129560,12.04,-7.80,29.54,1.16,8.73,1.82
129595,9.36,-6.49,31.98,1.06,8.73,1.74
129630,6.93,-7.24,34.01,1.03,8.73,1.66
129665,3.66,-6.39,35.47,1.07,8.73,1.57
129700,0.42,-7.03,35.61,1.18,8.73,1.58
129735,-2.34,-5.87,32.93,1.14,8.73,1.69
129770,-5.96,-5.53,32.01,1.03,8.73,1.78
129805,-6.00,-6.10,28.72,0.98,8.73,1.84
129840,-7.62,-3.19,25.12,0.84,8.73,1.80
129875,-6.05,-3.69,22.64,0.77,8.73,1.72
129910,-4.75,-1.61,18.68,0.70,8.73,1.60
129945,1.35,-0.46,19.07,0.75,8.73,1.53
129980,3.76,-1.25,16.67,0.84,8.73,1.43
130015,5.59,-1.07,16.58,0.91,8.73,1.50
130050,8.91,-3.09,17.85,0.97,8.73,1.55
130085,10.82,-3.56,19.96,0.96,8.73,1.60
130120,11.71,-5.03,22.16,0.91,8.73,1.59
130155,12.48,-5.89,25.85,0.83,8.73,1.54
130195,12.32,-5.94,30.17,0.79,8.73,1.39
130230,9.66,-5.38,31.96,0.81,8.73,1.22
130265,7.52,-4.35,34.39,0.91,8.73,1.04
130300,4.03,-4.57,34.77,1.10,8.73,0.99
130336,1.57,-4.39,35.45,1.37,8.73,1.07
130370,-1.90,-5.74,34.38,1.49,8.73,1.29
130405,-5.54,-5.73,31.58,1.50,8.73,1.50
130440,-6.42,-5.31,29.19,1.46,8.73,1.68
130475,-5.66,-4.81,24.97,1.34,8.73,1.79
130510,-6.25,-2.60,22.38,1.26,8.73,1.85
130545,-5.60,-3.81,19.70,1.20,8.73,1.87
130580,-2.72,-3.26,17.98,1.11,8.73,1.83
130615,1.34,-3.02,16.73,1.08,8.73,1.82
130650,5.72,-3.55,16.64,1.06,8.73,1.88
130685,9.72,-2.96,17.78,1.00,8.73,1.92
130720,11.35,-4.93,19.52,0.97,8.73,1.93
130755,12.76,-5.59,22.86,0.91,8.73,1.92
130790,13.45,-5.65,25.81,0.87,8.73,1.90
130825,12.28,-5.59,28.63,0.80,8.73,1.88
130860,11.28,-7.46,31.31,0.75,8.73,1.80
130895,8.37,-5.94,33.02,0.74,8.73,1.67
130930,5.10,-5.70,33.89,0.77,8.73,1.56
130965,1.88,-5.22,34.05,0.83,8.73,1.47
131000,-0.99,-5.22,33.30,0.89,8.73,1.47
131035,-4.60,-5.18,32.31,0.89,8.73,1.52
131070,-6.91,-4.34,29.42,0.77,8.73,1.56
131105,-4.49,-3.19,24.46,0.67,8.73,1.48
131140,-7.93,-0.61,23.71,0.70,8.73,1.35
131175,-5.24,0.61,20.58,0.72,8.73,1.23
131210,-4.59,2.37,18.38,0.88,8.73,1.09
131245,0.94,1.65,16.67,1.05,8.73,0.95
131280,4.42,1.92,16.41,1.24,8.73,0.96
131316,6.64,0.73,16.46,1.44,8.73,1.08
131350,8.53,-1.53,17.97,1.54,8.73,1.34
131385,10.85,-5.66,19.05,1.42,8.73,1.60
131420,11.50,-5.98,22.79,1.23,8.73,1.75
131455,11.03,-6.93,27.48,1.09,8.73,1.79
131490,12.71,-7.26,30.62,1.01,8.73,1.74
131525,9.30,-7.43,32.27,0.91,8.73,1.67
131560,5.93,-6.79,33.61,0.85,8.73,1.60
131595,3.14,-6.68,34.28,0.90,8.73,1.65
131630,0.45,-7.40,34.48,0.89,8.73,1.73
131665,-2.81,-5.94,33.86,0.82,8.73,1.78
131700,-5.11,-5.87,31.31,0.71,8.73,1.76
131735,-6.23,-4.85,27.67,0.61,8.73,1.72
131770,-7.30,-3.48,25.07,0.53,8.73,1.59
131805,-5.16,-1.84,21.61,0.54,8.73,1.46
131840,-4.46,0.01,19.10,0.60,8.73,1.29
131875,0.25,0.07,16.60,0.77,8.73,1.27
131910,3.82,-1.33,16.00,0.89,8.73,1.29
131945,5.94,-1.86,15.51,1.00,8.73,1.38
131980,7.86,-3.47,16.34,1.04,8.73,1.48
132015,10.24,-4.41,18.70,1.02,8.73,1.54
132050,11.62,-4.34,21.64,1.02,8.73,1.60
132085,11.60,-6.09,25.29,0.99,8.73,1.63
132120,11.38,-5.37,28.61,0.97,8.73,1.63
132155,10.88,-6.77,31.30,0.97,8.73,1.67
132190,8.54,-7.10,33.19,0.98,8.73,1.73
132230,4.10,-8.22,34.67,0.92,8.73,1.82
132265,0.89,-6.87,34.64,0.86,8.73,1.80
132300,-2.28,-6.63,33.09,0.85,8.73,1.79
132336,-3.26,-5.13,30.18,0.78,8.73,1.80
132370,-7.46,-4.88,28.61,0.76,8.73,1.75
132405,-7.67,-5.16,25.95,0.74,8.73,1.69
132440,-6.13,-3.71,22.41,0.71,8.73,1.63
132475,-5.83,-0.54,19.00,0.75,8.73,1.49
132510,-0.21,-1.44,17.50,0.87,8.73,1.47
132545,2.91,-1.60,15.45,1.01,8.73,1.58
132580,6.36,-4.74,14.53,1.01,8.73,1.79
132615,8.49,-6.79,15.74,0.86,8.73,1.99
132650,9.82,-5.11,18.65,0.84,8.73,1.97
132685,10.18,-2.50,19.74,1.09,8.73,1.93
132720,11.78,-3.97,22.46,1.29,8.73,2.04
132755,12.58,-4.27,25.45,1.45,8.73,2.33
132790,10.35,-8.10,29.33,1.52,8.73,2.76
132825,8.66,-11.78,32.15,1.23,8.73,2.99
132860,6.12,-10.97,34.78,0.83,8.73,3.00
132895,2.03,-10.48,36.67,0.47,8.73,2.88
132930,-0.48,-8.49,36.71,0.37,8.73,2.54
132965,-4.95,-7.15,35.41,0.27,8.73,2.22
133000,-4.62,-5.04,31.59,0.31,8.73,1.97
133035,-8.19,-5.02,29.60,0.42,8.73,1.72
133070,-5.17,-2.52,26.48,0.44,8.73,1.52
133105,-3.04,-0.48,22.25,0.60,8.73,1.31
133140,-1.35,-0.30,19.20,0.78,8.73,1.12
133175,3.97,3.22,18.45,1.05,8.73,0.80
133210,10.25,8.42,19.94,1.54,8.73,0.39
133245,6.68,6.63,17.68,2.32,8.73,0.37
133280,10.56,-0.13,22.48,2.80,8.73,0.93
133316,13.07,-7.13,26.04,2.68,8.73,1.58
133350,12.33,-9.49,32.33,2.13,8.73,2.07
133385,12.45,-12.81,37.19,1.71,8.73,2.18
133420,9.91,-11.60,40.67,1.45,8.73,2.13
133455,6.13,-10.39,39.39,1.30,8.73,2.15
133490,1.33,-11.57,39.74,1.19,8.73,2.24
133525,-1.49,-11.41,37.47,1.02,8.73,2.38
133560,-3.66,-7.20,35.27,0.70,8.73,2.33
133595,-5.09,-7.10,30.19,0.42,8.73,2.13
133630,-6.90,-5.27,27.35,0.25,8.73,1.81
133665,-3.49,-0.57,24.16,0.21,8.73,1.40
133700,-3.83,2.36,21.55,0.22,8.73,1.00
133735,-0.61,3.09,20.00,0.61,8.73,0.76
133770,2.33,2.41,20.47,1.03,8.73,0.62
133805,7.18,2.55,19.62,1.45,8.73,0.71
133840,10.35,-0.88,23.02,1.51,8.73,1.01
133875,12.14,-6.99,25.40,1.55,8.73,1.34
133910,12.94,-10.41,28.40,1.39,8.73,1.46
133945,11.71,-8.34,32.58,1.09,8.73,1.36
133980,10.84,-7.18,35.35,1.00,8.73,1.23
134015,8.35,-8.41,36.10,1.13,8.73,1.15
134050,3.73,-6.78,35.28,1.35,8.73,1.21
134085,1.06,-8.62,34.43,1.42,8.73,1.51
134120,-1.19,-9.12,32.32,1.26,8.73,1.78
134155,-4.24,-8.64,30.08,1.00,8.73,1.97
134190,-5.75,-6.45,27.21,0.69,8.73,1.98
134225,-6.91,-5.14,24.89,0.44,8.73,1.84
134265,-6.15,-2.72,21.79,0.38,8.73,1.67
134300,-5.72,-1.22,19.34,0.47,8.73,1.56
134336,-1.38,-0.69,17.50,0.55,8.73,1.34
134370,-2.78,-0.12,16.26,0.73,8.73,1.29
134405,3.21,1.30,18.86,0.94,8.73,1.26
134440,8.02,-1.35,17.66,1.12,8.73,1.35
134475,11.55,-3.11,21.13,1.29,8.73,1.41
134510,13.23,-5.13,23.80,1.31,8.73,1.51
134545,11.78,-6.36,25.34,1.20,8.73,1.58
134580,11.12,-7.45,29.12,1.06,8.73,1.54
134615,10.77,-7.63,33.15,1.00,8.73,1.41
134650,8.44,-6.22,35.76,0.98,8.73,1.29
134685,3.74,-6.11,35.47,1.14,8.73,1.28
134720,0.73,-7.54,35.22,1.21,8.73,1.49
134755,-1.38,-5.85,32.90,1.17,8.73,1.68
134790,-5.83,-6.20,34.04,1.10,8.73,1.81
134825,-5.79,-5.26,30.55,1.00,8.73,1.92
134860,-7.40,-5.78,26.83,1.02,8.73,1.96
134895,-5.14,-3.63,22.70,1.02,8.73,2.05
134930,-4.76,-5.84,19.22,1.08,8.73,2.12
134965,-1.91,-6.72,17.78,0.98,8.73,2.23
135000,1.45,-5.79,17.11,0.86,8.73,2.26
135035,5.06,-5.24,17.11,0.82,8.73,2.22
135070,7.60,-3.23,17.70,0.83,8.73,2.13
135105,10.62,-5.13,20.70,0.94,8.73,2.05
135140,13.35,-3.19,24.35,1.04,8.73,2.04
135175,12.25,-5.04,28.76,1.22,8.73,2.18
135210,13.08,-7.30,31.36,1.31,8.73,2.35
135245,10.04,-8.02,33.85,1.24,8.73,2.63
135280,8.00,-9.60,34.94,1.05,8.73,2.85
135316,4.90,-9.85,37.82,0.77,8.73,2.85
135350,0.82,-8.17,37.90,0.46,8.73,2.71
135385,-2.50,-6.80,38.23,0.42,8.73,2.40
135420,-5.11,-5.85,35.56,0.49,8.73,2.14
135455,-5.57,-4.27,32.33,0.56,8.73,1.99
135490,-7.78,-3.96,28.62,0.63,8.73,1.93
135525,-4.95,-2.88,25.78,0.70,8.73,1.83
135560,-0.64,-2.22,21.41,0.72,8.73,1.77
135595,2.00,-3.87,19.35,0.79,8.73,1.78
135630,5.18,-3.65,18.44,0.82,8.73,1.81
135665,8.47,-3.44,20.12,0.83,8.73,1.78
135700,10.77,-4.75,22.54,0.95,8.73,1.75
135735,12.38,-3.80,25.21,1.01,8.73,1.75
135770,12.61,-4.46,27.94,1.14,8.73,1.83
135805,12.56,-6.73,31.21,1.18,8.73,1.91
135841,11.32,-7.49,34.33,1.12,8.73,2.02
135875,8.54,-8.50,36.45,1.14,8.73,2.08
135910,5.18,-7.61,38.36,1.06,8.73,2.03
135945,1.34,-8.54,39.48,1.05,8.73,2.08
135980,-2.03,-6.49,37.17,1.11,8.73,2.03
136015,-3.89,-7.55,33.51,1.00,8.73,2.03
136050,-5.77,-6.57,31.27,1.07,8.73,2.08
136085,-6.34,-5.81,27.45,0.99,8.73,2.08
136120,-5.04,-6.52,24.57,0.90,8.73,2.08
136155,-3.77,-4.61,21.41,0.83,8.73,2.09
136190,0.38,-5.48,19.07,0.79,8.73,2.10
136225,4.71,-6.25,17.89,0.72,8.73,2.09
136260,7.20,-5.87,19.00,0.58,8.73,2.10
136300,10.04,-4.91,18.16,0.50,8.73,2.02
136335,11.41,-2.95,22.44,0.70,8.73,1.87
136370,12.71,-3.66,26.51,0.88,8.73,1.80
136405,11.89,-4.80,29.95,0.97,8.73,1.84
136440,12.01,-5.67,33.22,1.03,8.73,1.92
136475,9.41,-6.98,35.00,1.02,8.73,1.88
