timestamp,accelX,accelY,accelZ,gyroX,gyroY,gyroZ
349570,6.67,1.29,3.51,1.93,6.18,1.14
349605,8.24,0.82,5.57,2.07,6.17,1.41
349640,8.87,-0.43,6.97,2.14,6.14,1.66
349675,8.55,-1.08,8.19,2.31,6.23,1.97
349710,9.42,-5.88,10.92,2.21,6.33,2.30
349745,9.30,-4.20,14.68,2.16,6.36,2.63
349780,15.39,-10.45,19.03,2.67,6.27,3.28
349815,4.75,-18.78,16.07,2.26,6.48,3.64
349850,6.92,-8.05,22.78,1.50,6.36,3.53
349885,3.00,-15.34,18.19,0.97,6.17,3.19
349920,1.87,-3.95,24.78,0.40,6.62,2.29
349955,-0.91,-13.19,22.93,0.25,6.94,2.26
349990,-2.63,-12.36,23.59,-0.05,6.87,2.92
350025,-4.67,-3.86,23.84,-0.19,7.05,2.71
350060,-5.79,1.33,21.42,0.61,7.17,2.02
350095,-6.24,-7.53,15.77,1.50,7.19,1.86
350130,-8.22,-10.54,14.46,1.49,7.20,1.87
350165,-7.57,-10.18,13.90,1.00,7.39,1.88
350200,-11.25,-7.51,14.67,0.17,7.74,1.42
350235,-10.95,-0.18,16.53,-0.22,8.48,0.84
350270,-6.03,12.13,14.91,-0.07,8.73,-0.18
350305,-4.87,20.77,12.25,0.65,8.73,-0.84
350340,12.39,17.31,16.00,1.71,8.73,-1.08
350375,16.52,5.54,15.73,2.32,8.73,-0.76
350410,18.76,-12.12,15.58,2.08,8.54,-0.13
350445,10.42,-17.11,11.66,0.42,8.30,0.59
350480,12.18,-11.26,20.13,-1.05,8.39,0.31
350515,10.43,-6.08,21.28,-0.88,8.17,-0.51
350550,7.66,-3.04,21.31,-0.47,7.91,-1.19
350585,8.54,-0.61,24.94,-0.19,7.72,-1.77
350620,6.05,-2.09,21.00,0.24,7.62,-2.37
350656,4.44,4.56,24.81,0.92,7.52,-2.32
350690,4.83,1.63,26.32,1.61,7.69,-1.99
350725,0.91,2.00,26.86,1.98,7.85,-1.41
350760,-3.06,-3.77,29.03,2.04,7.94,-0.40
350795,-3.09,-7.40,21.68,1.64,7.95,0.50
350830,-8.79,-4.19,21.34,0.79,7.73,1.05
350865,-6.16,-0.71,16.92,-0.01,7.56,1.04
350900,-5.25,5.33,14.51,-0.45,7.34,0.76
350935,-17.59,4.17,17.02,-0.43,7.47,0.48
350970,-5.65,10.02,20.21,-0.03,7.60,0.52
351005,-2.32,4.64,6.08,0.32,7.56,0.79
351040,1.37,-0.78,5.66,0.42,7.64,1.16
351075,-1.05,1.64,8.85,0.63,7.38,1.59
351110,-0.86,-3.30,3.69,0.46,7.39,1.72
351145,7.20,-2.66,6.60,0.39,7.53,1.84
351180,7.92,-4.30,9.06,0.12,7.49,1.87
351215,8.81,-3.56,9.42,0.05,7.49,1.77
351249,9.54,-3.41,10.24,0.00,7.43,1.56
351284,11.09,-2.34,11.42,-0.14,7.59,1.46
351319,9.99,-4.15,16.27,-0.23,7.84,1.28
351354,11.50,-4.05,20.25,-0.39,8.03,0.97
351390,10.65,-1.65,23.48,-0.33,8.04,0.63
351424,7.69,-1.00,25.25,-0.02,8.04,0.45
351464,5.35,-0.61,26.75,0.32,8.08,0.50
351499,2.97,-1.54,29.31,0.50,8.24,0.57
351534,-0.16,-2.38,28.36,0.68,8.40,0.75
351569,-2.77,-2.80,27.16,0.64,8.46,1.02
351604,-5.26,-2.82,27.57,0.50,8.53,1.14
351639,-5.34,-1.41,24.00,0.41,8.57,1.14
351674,-6.32,2.49,22.69,0.47,8.56,1.08
351709,-6.79,1.06,19.51,0.69,8.60,1.06
351744,-4.87,0.70,15.76,0.94,8.59,1.18
351779,-4.28,-0.74,13.24,1.00,8.55,1.22
351815,-0.55,1.49,11.25,1.00,8.51,1.11
351849,3.18,1.77,10.26,1.07,8.39,1.06
351884,4.68,3.90,10.00,1.25,8.28,1.09
351919,5.95,2.03,10.59,1.50,8.29,1.11
351954,7.79,1.82,12.38,1.74,8.37,1.17
351989,9.44,-0.81,15.00,1.86,8.40,1.37
352024,11.53,-2.84,18.19,1.92,8.35,1.59
352059,12.56,-4.82,19.79,1.75,8.27,1.82
352094,11.70,-6.45,21.39,1.59,8.28,1.95
352129,10.21,-7.01,24.16,1.31,8.35,1.96
352164,7.79,-7.13,26.80,1.08,8.43,1.86
352200,4.88,-6.87,28.41,1.01,8.47,1.81
352234,2.62,-6.06,31.03,0.97,8.60,1.74
352269,-0.28,-6.45,30.49,0.98,8.65,1.65
352304,-2.29,-3.67,29.23,1.18,8.72,1.45
352339,-4.41,-5.66,27.33,1.28,8.73,1.48
352374,-5.59,-4.57,24.61,1.26,8.73,1.56
352409,-6.26,-5.56,21.03,1.19,8.73,1.60
352443,-7.54,-5.11,18.78,0.98,8.73,1.54
352478,-6.85,0.34,16.08,0.72,8.73,1.26
352513,-2.52,1.24,14.24,0.77,8.73,1.06
352548,-0.94,1.78,11.70,0.86,8.73,0.90
352583,0.97,0.93,11.32,1.02,8.73,0.98
352618,3.77,-1.84,12.83,1.10,8.73,1.18
352652,6.72,-3.00,12.27,1.08,8.73,1.38
352687,9.13,-3.92,13.58,1.02,8.73,1.51
352722,10.20,-3.97,17.08,1.01,8.73,1.55
352757,11.81,-4.25,20.62,1.05,8.73,1.59
352792,11.50,-5.97,23.46,1.03,8.73,1.62
352827,11.60,-6.06,27.37,0.98,8.73,1.63
352862,9.26,-6.16,29.50,0.88,8.73,1.55
352897,6.84,-6.55,30.99,0.88,8.73,1.56
352932,3.41,-7.15,32.33,0.92,8.73,1.71
352967,0.12,-7.06,33.30,0.86,8.73,1.81
353002,-2.22,-6.53,30.14,0.65,8.73,1.93
353037,-4.40,-5.57,27.25,0.53,8.73,1.88
353072,-5.67,-2.89,24.26,0.50,8.73,1.79
353107,-5.90,-2.89,20.90,0.54,8.73,1.67
353142,-8.07,-1.66,19.48,0.70,8.73,1.67
353177,-6.93,-1.99,17.40,0.85,8.73,1.75
353212,-3.38,-2.89,14.56,0.83,8.73,1.70
353247,-5.44,-2.49,13.03,0.81,8.73,1.56
353282,4.72,0.47,15.32,0.82,8.73,1.44
353317,9.83,-1.99,13.69,1.01,8.73,1.29
353352,8.79,-0.24,15.42,1.17,8.73,1.33
353387,10.76,-1.52,17.80,1.32,8.73,1.45
353422,11.38,-4.55,20.53,1.36,8.73,1.61
353457,11.65,-4.80,24.04,1.28,8.73,1.71
353497,11.42,-7.29,29.03,1.22,8.73,1.80
353532,8.76,-5.82,31.89,1.11,8.73,1.77
353567,6.32,-7.28,33.98,1.07,8.73,1.73
353602,3.60,-7.11,34.17,1.08,8.73,1.71
353637,0.26,-6.87,33.05,1.12,8.73,1.68
353672,-2.68,-5.99,31.91,1.14,8.73,1.68
353707,-6.11,-5.87,31.24,1.16,8.73,1.75
353742,-7.20,-5.48,27.50,1.11,8.73,1.83
353777,-7.41,-4.88,23.97,1.11,8.73,1.89
353812,-5.77,-4.99,20.47,1.14,8.73,1.97
353847,-3.28,-5.50,17.45,1.09,8.73,2.05
353882,-2.27,-5.91,14.73,1.01,8.73,2.11
353917,-0.34,-3.62,14.63,0.90,8.73,2.07
353952,2.29,-5.26,15.48,0.81,8.73,2.05
353987,5.98,-4.71,15.12,0.76,8.73,1.99
354022,9.92,-5.01,17.66,0.70,8.73,1.97
354056,11.96,-4.75,21.56,0.72,8.73,1.90
354091,13.27,-5.05,24.81,0.71,8.73,1.82
354126,12.30,-5.30,26.88,0.78,8.73,1.79
354162,11.10,-5.34,29.32,0.87,8.73,1.84
354196,8.31,-6.14,31.69,0.88,8.73,1.96
354231,5.66,-7.16,33.27,0.80,8.73,2.07
354266,3.01,-6.98,34.71,0.69,8.73,2.10
354301,-0.30,-8.04,35.09,0.61,8.73,2.08
354335,-2.02,-4.35,31.61,0.62,8.73,1.93
354371,-4.67,-5.29,28.53,0.62,8.73,1.84
354405,-7.36,-2.74,27.23,0.64,8.73,1.77
354440,-7.99,-2.30,24.45,0.70,8.73,1.73
354475,-7.39,-2.89,21.84,0.77,8.73,1.72
354510,-5.50,-3.32,18.77,0.84,8.73,1.78
354545,-2.96,-1.73,17.41,0.87,8.73,1.75
354580,1.07,-2.95,16.39,0.89,8.73,1.80
354615,5.93,-3.68,16.87,0.87,8.73,1.85
354650,10.39,-1.47,19.09,0.94,8.73,1.82
354685,12.02,-4.43,19.97,1.05,8.73,1.80
354720,12.52,-3.27,23.28,1.23,8.73,1.81
354755,12.43,-3.75,25.99,1.32,8.73,1.94
354790,11.61,-6.76,28.78,1.29,8.73,2.07
354825,9.81,-7.50,31.21,1.10,8.73,2.05
354860,8.54,-7.20,33.77,0.98,8.73,1.93
354895,4.42,-7.40,33.66,0.92,8.73,1.86
354930,0.34,-6.68,33.92,0.95,8.73,1.86
354965,-2.55,-7.07,33.02,0.93,8.73,1.90
355000,-4.07,-5.72,31.15,0.85,8.73,1.91
355035,-5.39,-4.83,28.75,0.86,8.73,1.89
355070,-6.69,-4.36,25.27,0.93,8.73,1.90
355105,-6.49,-4.55,22.41,0.93,8.73,1.95
355140,-6.33,-4.15,19.28,0.95,8.73,2.00
355175,-4.22,-4.85,17.51,0.90,8.73,2.01
355210,0.04,-3.66,16.51,0.82,8.73,1.95
355245,3.92,-3.44,16.02,0.81,8.73,1.89
355280,9.11,-2.72,17.61,0.77,8.73,1.87
355315,11.01,-4.86,19.57,0.79,8.73,1.82
355350,12.18,-6.42,21.56,0.68,8.73,1.78
355385,13.12,-6.17,24.24,0.57,8.73,1.69
355420,11.79,-5.27,28.32,0.62,8.73,1.58
355455,10.41,-4.97,31.18,0.72,8.73,1.56
355490,8.69,-4.90,34.43,0.87,8.73,1.60
355530,5.10,-5.11,34.70,0.91,8.73,1.78
355565,1.71,-7.12,34.17,0.84,8.73,1.93
355600,-1.41,-6.10,32.34,0.69,8.73,1.96
355634,-5.06,-6.00,32.23,0.64,8.73,1.90
355669,-5.37,-3.55,30.51,0.65,8.73,1.86
355704,-6.45,-2.73,27.46,0.78,8.73,1.83
355739,-7.03,-3.32,23.69,0.96,8.73,1.91
355774,-6.17,-4.30,20.30,1.11,8.73,2.10
355809,-4.71,-7.50,16.59,1.06,8.73,2.36
355844,-0.51,-6.97,15.87,0.91,8.73,2.44
355879,4.23,-6.65,16.09,0.72,8.73,2.41
355914,7.21,-4.01,15.84,0.67,8.73,2.20
355949,10.38,-3.37,17.51,0.71,8.73,2.03
355984,11.63,-3.20,20.43,0.82,8.73,1.95
356019,12.13,-3.44,22.90,0.93,8.73,1.93
356054,11.84,-4.16,26.40,1.07,8.73,2.03
356089,11.79,-5.48,29.67,1.09,8.73,2.18
356124,9.46,-6.15,32.28,1.02,8.73,2.25
356159,5.71,-8.02,33.23,0.91,8.73,2.34
356194,3.15,-6.42,35.36,0.79,8.73,2.25
356229,0.15,-5.86,34.31,0.79,8.73,2.05
356264,-2.19,-4.34,31.79,0.81,8.73,1.90
356299,-6.18,-5.80,30.80,0.88,8.73,1.82
356334,-7.02,-3.75,28.43,0.96,8.73,1.81
356369,-7.38,-3.75,24.59,0.96,8.73,1.84
356404,-4.64,-3.91,21.32,0.96,8.73,1.85
356439,-3.10,-4.06,17.82,0.92,8.73,1.84
356474,-1.12,-3.51,15.58,0.89,8.73,1.80
356509,2.74,-2.39,15.50,0.86,8.73,1.74
356544,5.11,-2.80,14.86,0.87,8.73,1.67
356579,7.49,-2.86,15.33,0.89,8.73,1.66
356614,9.32,-3.13,17.64,0.92,8.73,1.64
356649,10.88,-4.48,20.43,0.90,8.73,1.67
356684,13.05,-4.11,25.81,0.93,8.73,1.66
356719,13.01,-4.89,28.65,0.90,8.73,1.66
356754,11.60,-4.60,30.37,0.88,8.73,1.65
356789,8.37,-6.31,32.84,0.95,8.73,1.69
356824,5.05,-6.37,33.50,0.99,8.73,1.73
356860,1.82,-5.31,33.78,1.01,8.73,1.74
356894,-0.80,-4.93,33.37,1.06,8.73,1.70
356929,-4.13,-5.79,31.68,1.15,8.73,1.70
356964,-5.51,-5.16,29.38,1.24,8.73,1.76
356999,-6.69,-5.42,26.40,1.30,8.73,1.89
357034,-7.14,-5.19,22.40,1.28,8.73,1.98
357069,-5.01,-5.25,18.88,1.19,8.73,2.07
357104,-3.60,-4.93,15.87,1.08,8.73,2.08
357139,-0.60,-5.60,14.54,0.94,8.73,2.07
357174,3.47,-5.47,14.98,0.84,8.73,2.04
357209,6.55,-4.00,14.78,0.75,8.73,1.99
357244,8.22,-4.97,15.88,0.70,8.73,1.94
357279,10.57,-4.69,19.24,0.67,8.73,1.86
357315,12.63,-2.62,22.22,0.70,8.73,1.80
357350,13.15,-4.75,24.86,0.73,8.73,1.77
357385,11.49,-5.64,28.04,0.69,8.73,1.71
357420,9.87,-4.50,31.44,0.69,8.73,1.67
357454,7.14,-5.41,33.78,0.75,8.73,1.66
357489,4.22,-5.70,34.62,0.76,8.73,1.64
357524,1.11,-5.41,34.82,0.79,8.73,1.67
357564,-2.14,-4.06,32.47,0.76,8.73,1.69
357600,-4.56,-4.07,30.04,0.72,8.73,1.66
357634,-6.27,-2.93,27.11,0.68,8.73,1.62
357669,-5.65,-3.32,23.28,0.70,8.73,1.58
357704,-6.64,0.00,22.15,0.83,8.73,1.58
357739,-5.66,-2.28,17.59,0.92,8.73,1.59
357774,-2.86,-1.11,15.85,0.95,8.73,1.57
357809,-0.08,-1.21,15.69,1.02,8.73,1.64
357843,4.00,-0.85,15.51,1.07,8.73,1.54
357878,6.61,0.00,15.53,1.20,8.73,1.51
357913,8.50,-1.22,17.82,1.35,8.73,1.55
357948,11.68,-2.92,21.16,1.41,8.73,1.65
357982,12.98,-4.73,23.72,1.42,8.73,1.77
358017,12.65,-7.03,26.38,1.24,8.73,1.81
358051,11.35,-7.54,29.31,1.11,8.73,1.73
358086,9.11,-7.03,32.25,1.00,8.73,1.54
358121,5.36,-5.91,33.42,0.99,8.73,1.37
358156,2.46,-4.27,33.77,1.13,8.73,1.26
358191,-0.49,-5.26,32.90,1.27,8.73,1.30
358226,-3.21,-4.69,31.09,1.33,8.73,1.44
358261,-5.49,-6.94,29.44,1.24,8.73,1.62
358295,-5.72,-4.88,26.22,1.18,8.73,1.72
358330,-6.87,-4.27,23.48,1.09,8.73,1.74
358366,-6.10,-3.84,20.94,0.92,8.73,1.71
358400,-3.49,-2.23,17.75,0.89,8.73,1.69
358435,-1.65,-1.89,15.87,0.87,8.73,1.64
358470,1.54,-1.86,15.05,0.91,8.73,1.67
358505,4.08,-2.22,14.87,0.92,8.73,1.68
358540,6.88,-2.43,15.15,0.92,8.73,1.70
358575,9.32,-3.50,17.32,0.94,8.73,1.70
358610,11.59,-4.69,20.31,0.90,8.73,1.70
358645,11.94,-5.67,23.47,0.84,8.73,1.68
358680,12.17,-5.37,27.09,0.81,8.73,1.63
358715,11.37,-5.48,30.30,0.81,8.73,1.57
358750,8.94,-5.13,32.71,0.86,8.73,1.53
358785,5.68,-5.41,33.35,0.92,8.73,1.57
358820,2.16,-5.77,33.28,0.93,8.73,1.67
358855,-0.89,-6.09,32.52,0.92,8.73,1.75
358890,-3.30,-4.70,30.95,0.91,8.73,1.79
358925,-4.99,-3.73,28.78,0.94,8.73,1.79
358960,-6.16,-3.14,25.17,1.07,8.73,1.83
358995,-8.83,-3.49,22.78,1.22,8.73,1.92
359030,-7.98,-4.69,21.06,1.27,8.73,2.08
359065,-6.91,-6.15,17.49,1.15,8.73,2.13
359100,-1.27,-5.21,15.60,0.95,8.73,2.08
359135,4.81,-4.39,14.82,0.84,8.73,2.08
359170,6.33,-4.09,14.44,0.77,8.73,1.99
359205,7.81,-4.11,15.74,0.74,8.73,1.90
359240,9.80,-4.35,17.85,0.67,8.73,1.86
359275,12.43,-3.54,19.98,0.61,8.73,1.83
359310,14.22,-4.18,23.59,0.63,8.73,1.77
359346,12.07,-5.19,26.90,0.68,8.73,1.71
359380,10.69,-5.33,29.47,0.71,8.73,1.69
359415,8.28,-4.78,31.77,0.76,8.73,1.68
359450,4.73,-5.48,32.91,0.79,8.73,1.68
359485,1.59,-4.01,34.44,0.86,8.73,1.61
359519,-0.45,-3.63,34.16,0.97,8.73,1.52
359554,-2.84,-3.33,32.66,1.14,8.73,1.48
359594,-5.97,-4.44,30.11,1.30,8.73,1.58
359629,-5.90,-4.53,25.79,1.38,8.73,1.71
359664,-7.10,-4.08,21.92,1.38,8.73,1.84
359698,-5.46,-4.03,18.80,1.34,8.73,1.94
359733,-4.17,-3.49,16.01,1.28,8.73,2.03
359768,-0.86,-3.98,15.23,1.19,8.73,2.02
359802,3.61,-2.97,15.41,1.13,8.73,1.98
359837,6.61,-3.05,14.24,1.12,8.73,1.88
359873,9.18,-0.40,14.68,1.18,8.73,1.83
359907,11.00,-2.73,16.88,1.34,8.73,1.83
359942,12.23,-1.91,20.56,1.39,8.73,1.93
359977,13.19,-4.38,23.58,1.53,8.73,2.10
360012,12.09,-6.91,25.96,1.50,8.73,2.32
360047,9.71,-7.44,28.88,1.30,8.73,2.44
360082,7.54,-8.34,31.02,1.07,8.73,2.44
360117,4.58,-7.91,31.91,0.86,8.73,2.31
360152,1.97,-6.54,33.51,0.73,8.73,2.11
360187,-1.46,-6.60,34.37,0.76,8.73,2.00
360221,-3.47,-5.59,32.06,0.81,8.73,1.94
360256,-5.42,-5.28,28.45,0.90,8.73,1.89
360291,-6.89,-4.48,25.08,0.93,8.73,1.87
360326,-7.36,-5.06,21.65,0.96,8.73,1.87
360361,-4.44,-3.93,18.41,0.98,8.73,1.90
360396,-3.69,-3.56,14.82,0.94,8.73,1.84
360431,-0.39,-2.08,13.75,0.88,8.73,1.71
360466,2.51,-0.75,12.85,0.89,8.73,1.49
360501,4.28,0.56,13.79,1.00,8.73,1.33
360536,7.01,0.35,14.27,1.11,8.73,1.33
360571,9.87,-0.73,15.20,1.26,8.73,1.38
360606,11.31,-4.35,17.51,1.20,8.73,1.47
360641,11.86,-7.51,21.80,0.96,8.73,1.49
360676,12.56,-7.61,25.46,0.67,8.73,1.32
360711,12.01,-6.40,28.02,0.55,8.73,1.01
360745,9.34,-3.95,30.74,0.62,8.73,0.71
360780,5.78,-2.91,32.98,0.83,8.73,0.63
360815,2.76,-3.99,33.25,1.12,8.73,0.88
360850,-0.52,-4.66,33.36,1.19,8.73,1.18
360885,-3.15,-5.22,31.35,1.02,8.73,1.49
360920,-6.09,-6.06,28.73,0.77,8.73,1.63
360955,-4.77,-3.32,24.72,0.57,8.73,1.62
360990,-5.57,-2.26,21.47,0.43,8.73,1.50
361025,-5.61,-0.13,19.97,0.39,8.73,1.40
361060,-4.29,-0.55,17.52,0.51,8.73,1.38
361095,-0.54,-1.27,15.78,0.67,8.73,1.50
361130,0.82,-2.06,13.51,0.71,8.73,1.69
361165,3.80,-5.06,12.54,0.64,8.73,1.83
361200,7.17,-5.89,12.71,0.46,8.73,1.93
361235,8.90,-6.82,14.94,0.24,8.73,1.94
361270,11.25,-4.60,17.77,0.09,8.73,1.81
361305,11.19,-4.22,20.40,0.12,8.73,1.62
361341,10.95,-3.47,25.03,0.35,8.73,1.46
361375,10.50,-3.76,28.52,0.54,8.73,1.38
361410,9.32,-3.82,30.03,0.62,8.73,1.31
361445,7.62,-2.97,32.77,0.69,8.73,1.24
361480,4.74,-4.55,33.38,0.82,8.73,1.19
361515,1.53,-3.84,32.46,0.95,8.73,1.27
361550,-1.55,-3.45,30.68,0.96,8.73,1.35
361585,-4.32,-3.61,27.91,0.90,8.73,1.42
361625,-3.87,-2.27,24.44,0.90,8.73,1.42
361660,-6.73,-1.86,22.04,0.97,8.73,1.45
361695,-8.18,-0.78,20.57,0.99,8.73,1.50
361730,-5.92,-2.07,18.19,1.06,8.73,1.63
361765,-3.48,-3.32,15.71,1.07,8.73,1.73
361800,0.70,-3.28,14.14,1.02,8.73,1.87
361835,2.74,-2.61,13.72,0.97,8.73,1.92
361871,5.55,-4.33,15.60,0.90,8.73,1.95
361905,8.43,-3.83,15.61,0.89,8.73,1.92
361940,10.68,-3.78,19.03,0.90,8.73,1.93
361975,11.90,-4.37,22.95,0.97,8.73,1.94
362010,12.29,-4.31,26.39,1.06,8.73,2.00
362045,10.86,-5.46,28.85,1.10,8.73,2.15
362080,9.24,-6.93,31.28,1.01,8.73,2.25
362115,6.77,-6.87,31.48,0.87,8.73,2.22
362150,4.16,-6.23,31.25,0.69,8.73,2.13
362185,0.39,-7.08,31.42,0.60,8.73,2.07
362220,-2.02,-5.19,30.41,0.54,8.73,1.95
362255,-4.18,-4.90,28.02,0.53,8.73,1.83
362290,-7.09,-3.74,26.67,0.55,8.73,1.77
362325,-6.51,-3.82,23.86,0.70,8.73,1.74
362361,-5.07,-3.34,20.77,0.78,8.73,1.79
362395,-7.17,-5.00,17.47,0.90,8.73,1.97
362430,-3.97,-5.46,15.60,0.92,8.73,2.18
362465,-1.04,-7.02,14.47,0.81,8.73,2.27
362500,1.81,-6.65,14.03,0.64,8.73,2.32
362535,6.16,-5.80,14.59,0.49,8.73,2.29
362570,9.31,-5.19,14.73,0.44,8.73,2.13
362605,11.33,-4.90,17.41,0.39,8.73,2.05
362640,11.90,-4.21,21.69,0.42,8.73,1.94
362675,11.78,-4.08,25.01,0.64,8.73,1.93
362710,13.22,-5.26,28.14,0.72,8.73,2.04
362745,11.06,-7.06,30.36,0.75,8.73,2.21
362780,7.77,-7.40,30.69,0.65,8.73,2.34
362815,4.35,-8.06,31.84,0.48,8.73,2.36
362850,1.15,-6.89,33.81,0.28,8.73,2.22
362885,-0.98,-5.46,32.00,0.19,8.73,2.02
362920,-5.48,-4.47,32.86,0.20,8.73,1.80
362955,-5.02,-3.07,28.25,0.19,8.73,1.58
362990,-7.30,-2.45,25.33,0.13,8.73,1.39
363025,-10.06,0.54,24.77,0.26,8.73,1.16
363060,-4.03,1.14,21.34,0.47,8.73,1.04
363094,-0.94,1.98,16.82,0.71,8.73,0.91
363129,0.79,1.83,15.27,0.97,8.73,0.94
363164,4.69,0.04,15.91,1.19,8.73,1.11
363198,6.47,-1.56,17.52,1.35,8.73,1.31
363233,8.20,-2.51,17.96,1.50,8.73,1.48
363268,11.03,-3.34,20.02,1.65,8.73,1.67
363302,11.11,-5.41,23.99,1.69,8.73,1.92
363338,12.14,-7.97,27.23,1.68,8.73,2.19
363372,11.46,-9.88,30.98,1.55,8.73,2.51
363407,8.98,-11.26,33.63,1.30,8.73,2.70
363442,6.25,-11.36,35.53,0.97,8.73,2.75
363477,2.12,-11.05,36.39,0.54,8.73,2.79
363512,-0.89,-10.65,36.38,-0.04,8.73,2.92
363547,-5.09,-10.08,36.95,-0.37,8.73,2.63
363582,-8.12,-5.37,36.36,-0.75,8.73,2.23
363617,-10.58,-0.74,34.16,-0.72,8.73,1.70
363657,-3.08,3.43,29.07,-0.44,8.73,1.22
363692,-4.33,1.41,25.14,0.03,8.73,0.97
363726,-1.21,4.51,22.86,0.46,8.73,1.00
363761,4.09,-4.67,23.40,0.78,8.73,1.32
363795,8.29,-8.00,23.20,0.72,8.73,1.74
363830,12.22,-9.38,24.83,0.55,8.73,1.84
363865,14.50,-7.22,28.11,0.77,8.73,1.72
363900,14.97,-4.22,30.27,1.10,8.73,1.70
363935,12.47,-5.83,32.46,1.38,8.73,2.01
363970,9.70,-7.74,32.93,1.40,8.73,2.34
364005,7.86,-10.98,36.14,1.20,8.73,2.62
364040,3.49,-11.00,39.69,0.91,8.73,2.84
364075,0.22,-11.78,37.85,0.62,8.73,2.72
364110,-3.13,-8.52,37.42,0.38,8.73,2.57
364145,-7.60,-7.56,36.73,0.22,8.73,2.29
364180,-3.69,-4.38,29.64,0.19,8.73,2.01
364215,-9.07,-3.44,28.93,0.22,8.73,1.67
364250,-3.58,1.81,26.72,0.31,8.73,1.40
364285,-0.79,0.96,20.99,0.49,8.73,1.10
364320,0.51,2.81,20.00,0.81,8.73,0.84
364355,7.11,3.95,21.12,1.24,8.73,0.68
364390,8.44,3.05,19.62,1.71,8.73,0.82
364425,10.94,1.46,25.26,2.11,8.73,1.16
364460,14.19,-4.56,27.59,2.16,8.73,1.59
364495,12.07,-9.25,33.19,1.98,8.73,1.98
364530,12.08,-11.65,35.84,1.60,8.73,2.05
364565,10.46,-11.49,41.48,1.41,8.73,1.99
364600,4.95,-9.11,33.14,1.31,8.73,1.98
364635,1.70,-9.60,32.77,1.16,8.73,2.06
364670,-4.74,-12.15,43.97,0.87,8.73,2.31
364705,1.36,-7.68,28.20,0.60,8.73,2.30
364740,-12.52,-8.49,32.10,0.52,8.73,2.04
364775,-6.42,-5.28,27.63,0.35,8.73,1.90
364810,1.89,-2.64,23.26,0.48,8.73,1.68
364845,-5.24,-2.18,18.88,0.64,8.73,1.54
364880,-0.20,-2.45,18.81,0.78,8.73,1.48
364915,4.70,-3.38,19.09,0.94,8.73,1.44
364950,2.82,-2.97,17.28,1.01,8.73,1.43
364986,8.25,-1.90,18.27,1.31,8.73,1.43
365020,6.94,-2.90,19.01,1.47,8.73,1.55
365055,11.36,-4.85,25.09,1.67,8.73,1.82
365090,12.25,-5.85,29.02,1.68,8.73,2.13
365125,11.83,-11.49,32.64,1.65,8.73,2.47
365160,8.57,-10.69,35.35,1.36,8.73,2.58
365195,5.91,-11.16,38.40,1.01,8.73,2.64
365230,2.84,-11.69,38.44,0.64,8.73,2.67
365265,-0.57,-11.48,38.58,0.44,8.73,2.48
365300,-3.02,-6.52,37.76,0.26,8.73,2.24
365335,-6.58,-8.77,34.99,-0.02,8.73,2.05
365371,-7.48,-5.61,31.38,-0.16,8.73,1.73
365406,-7.36,0.17,29.00,-0.29,8.73,1.16
365440,-6.14,6.81,28.51,0.04,8.73,0.69
365475,-4.02,7.72,26.20,0.59,8.73,0.45
365510,0.45,6.64,26.36,1.20,8.73,0.51
365545,7.98,1.06,25.58,1.65,8.73,0.89
365579,13.22,-1.30,29.73,1.97,8.73,1.26
365614,13.72,-6.04,32.32,2.03,8.73,1.72
365649,15.13,-7.82,36.72,1.97,8.73,2.10
365689,12.23,-11.08,40.02,1.96,8.73,2.59
365725,9.88,-12.94,43.26,1.76,8.73,2.97
365759,5.57,-15.32,43.61,1.27,8.73,3.27
365794,0.17,-14.16,45.58,0.77,8.73,3.15
365829,-3.32,-12.78,45.85,0.52,8.73,2.92
365864,-0.76,-7.25,36.72,0.57,8.73,2.53
365899,-6.86,-8.28,33.88,0.70,8.73,2.26
365934,-2.40,-6.68,28.54,0.67,8.73,2.10
365969,0.26,-4.72,24.89,0.48,8.73,1.74
366004,-0.13,-1.24,22.22,0.54,8.73,1.28
366039,4.06,3.39,23.29,0.80,8.73,1.01
366074,6.63,0.23,19.71,1.21,8.73,0.95
366109,10.83,0.24,23.21,1.61,8.73,1.09
366144,14.08,-3.46,28.00,1.81,8.73,1.42
366179,14.41,-6.87,30.22,1.89,8.73,1.74
366214,11.90,-10.47,33.65,1.89,8.73,2.11
366249,10.84,-9.50,37.68,1.69,8.73,2.39
366284,7.92,-11.52,41.07,1.52,8.73,2.70
366319,3.90,-11.43,38.70,1.19,8.73,2.76
366354,-1.09,-12.61,41.04,1.05,8.73,2.62
366389,-2.76,-9.11,37.08,0.98,8.73,2.48
366424,-3.50,-7.07,31.88,1.05,8.73,2.30
366459,-4.99,-9.72,26.03,1.04,8.73,2.25
366494,-5.44,-8.32,22.87,0.83,8.73,2.14
366529,-5.52,-2.70,21.92,0.67,8.73,1.89
366564,-2.94,-2.53,19.52,0.60,8.73,1.51
366599,-0.82,2.08,19.05,0.77,8.73,1.09
366634,4.53,2.78,19.19,1.03,8.73,0.89
366669,8.40,2.14,19.32,1.41,8.73,0.89
366704,10.49,-0.08,20.62,1.71,8.73,1.09
366739,12.31,-6.26,24.12,1.54,8.73,1.40
366774,14.22,-9.07,27.48,1.22,8.73,1.53
366809,12.31,-8.83,31.77,0.84,8.73,1.40
366844,10.08,-8.20,33.69,0.78,8.73,1.17
366879,8.38,-5.46,34.30,0.87,8.73,1.14
366914,4.48,-7.76,32.84,1.01,8.73,1.46
366949,-0.10,-8.80,35.08,0.88,8.73,1.94
366984,-2.66,-8.12,32.54,0.60,8.73,2.08
367019,-4.39,-6.98,31.03,0.42,8.73,2.04
367054,-5.66,-4.71,30.28,0.26,8.73,1.92
367089,-6.87,-3.64,26.48,0.36,8.73,1.78
367124,-7.03,-3.51,22.98,0.36,8.73,1.61
367159,-5.29,-0.68,20.05,0.41,8.73,1.42
367194,-1.99,0.04,17.24,0.52,8.73,1.19
367229,0.50,2.94,16.63,0.75,8.73,1.03
367264,4.07,2.28,17.37,1.04,8.73,0.95
367299,7.67,-0.57,18.63,1.21,8.73,1.11
367334,11.56,-3.51,19.62,1.30,8.73,1.28
367370,13.81,-4.74,23.50,1.29,8.73,1.41
367405,12.38,-5.60,26.20,1.17,8.73,1.48
367439,11.91,-6.21,28.29,1.17,8.73,1.55
367474,11.27,-6.68,30.54,1.16,8.73,1.58
367509,8.74,-6.92,32.87,1.19,8.73,1.61
367544,5.25,-6.82,32.52,1.18,8.73,1.60
367579,1.08,-7.35,32.76,1.23,8.73,1.64
367614,-2.17,-6.79,32.22,1.26,8.73,1.75
367649,-3.45,-6.87,28.81,1.18,8.73,1.85
367684,-6.23,-5.90,27.55,1.11,8.73,1.90
367724,-6.85,-5.51,25.22,1.04,8.73,1.96
367759,-7.64,-5.14,22.15,1.06,8.73,2.01
367794,-6.85,-4.72,18.36,1.04,8.73,2.06
367829,-4.96,-4.83,16.63,0.96,8.73,2.15
367864,-1.24,-5.68,14.50,0.89,8.73,2.23
367899,2.53,-4.35,13.27,0.80,8.73,2.17
367934,7.06,-4.21,13.73,0.75,8.73,2.02
367969,9.87,-3.21,15.44,0.80,8.73,1.84
368004,11.52,-3.33,17.08,0.89,8.73,1.73
368039,12.16,-4.67,19.33,0.90,8.73,1.71
368074,12.24,-4.26,21.89,0.81,8.73,1.70
368109,11.44,-4.37,24.85,0.78,8.73,1.69
368144,10.54,-5.85,27.37,0.73,8.73,1.68
368179,7.99,-5.37,29.60,0.75,8.73,1.74
368214,5.41,-5.67,31.10,0.69,8.73,1.92
368249,2.51,-6.10,31.71,0.62,8.73,2.01
368284,-1.02,-7.25,32.23,0.48,8.73,2.02
368319,-3.17,-5.12,30.25,0.38,8.73,1.94
368354,-5.97,-4.16,28.46,0.41,8.73,1.76
368389,-6.74,-1.77,26.39,0.60,8.73,1.62
368424,-6.93,-3.62,23.02,0.77,8.73,1.57
368459,-6.30,-3.55,20.29,0.76,8.73,1.54
368494,-4.87,-1.69,17.53,0.68,8.73,1.39
368529,-1.42,1.34,15.37,0.69,8.73,1.08
368564,2.00,4.42,14.61,0.88,8.73,0.81
368599,5.57,4.45,13.96,1.18,8.73,0.66
368634,7.91,3.52,13.99,1.53,8.73,0.65
368669,9.44,1.00,15.69,1.77,8.73,0.83
368704,10.85,-2.32,17.50,1.85,8.73,1.13
368739,12.04,-6.54,19.32,1.66,8.73,1.39
368774,12.40,-7.71,23.67,1.31,8.73,1.44
368809,11.50,-7.44,27.19,1.10,8.73,1.31
368845,8.63,-5.46,29.05,0.99,8.73,1.06
368879,6.56,-3.69,31.19,1.06,8.73,0.90
368914,3.42,-5.17,31.34,1.26,8.73,1.05
368949,0.16,-5.44,32.62,1.39,8.73,1.30
368984,-3.05,-6.60,31.04,1.34,8.73,1.56
369019,-5.26,-6.73,28.35,1.19,8.73,1.76
369054,-6.20,-5.14,25.67,1.09,8.73,1.88
369089,-6.50,-4.00,23.29,1.08,8.73,1.93
369124,-7.56,-4.37,20.39,1.17,8.73,2.03
369159,-6.68,-5.50,16.44,1.14,8.73,2.18
369194,-3.56,-5.86,12.57,1.00,8.73,2.31
369229,-1.37,-5.53,11.51,0.80,8.73,2.31
369264,1.30,-5.11,11.26,0.61,8.71,2.30
369299,3.42,-6.42,11.19,0.43,8.73,2.23
369335,7.05,-6.05,12.13,0.23,8.73,2.20
369370,9.31,-5.95,15.58,0.08,8.73,2.05
369405,11.28,-4.33,19.07,0.09,8.73,1.81
369439,12.13,-2.69,21.91,0.20,8.73,1.64
369474,10.98,-4.21,24.23,0.30,8.73,1.55
369509,10.52,-3.04,28.28,0.36,8.73,1.49
369544,9.35,-4.08,31.98,0.52,8.73,1.49
369579,5.86,-4.22,33.65,0.66,8.73,1.51
369614,1.81,-4.45,32.07,0.72,8.73,1.57
369649,-1.51,-4.50,31.21,0.74,8.73,1.55
369684,-4.23,-2.67,30.16,0.85,8.73,1.45
369719,-5.50,-2.64,27.04,1.01,8.73,1.40
369759,-4.59,-2.89,21.94,1.14,8.73,1.46
369794,-8.84,-3.04,20.16,1.21,8.73,1.55
369829,-6.81,-2.56,18.10,1.17,8.73,1.62
369864,-6.75,-1.43,15.62,1.04,8.73,1.55
369899,-2.02,1.96,15.43,0.95,8.73,1.19
369934,2.14,3.77,14.12,1.07,8.73,0.95
369969,4.91,3.17,13.17,1.28,8.73,0.88
370004,7.09,0.44,13.33,1.41,8.73,1.05
370039,9.73,-3.17,13.90,1.34,8.73,1.34
370074,10.55,-6.52,15.69,1.06,8.73,1.57
370109,10.48,-6.28,18.38,0.72,8.73,1.61
370144,11.55,-4.71,23.52,0.64,8.73,1.54
370179,11.70,-4.61,27.88,0.79,8.73,1.52
370214,9.80,-4.78,30.51,0.84,8.73,1.54
370249,7.08,-5.15,31.67,0.89,8.73,1.58
370284,3.98,-5.42,31.78,0.90,8.73,1.58
370319,1.07,-5.45,31.18,1.02,8.73,1.50
370354,-1.95,-4.17,33.02,1.23,8.73,1.36
370389,-4.40,-4.03,30.68,1.55,8.73,1.31
370424,-6.04,-5.40,27.06,1.66,8.73,1.49
370459,-7.12,-6.02,23.24,1.61,8.73,1.69
370494,-8.46,-5.67,20.91,1.42,8.73,1.80
370529,-7.47,-4.01,19.18,1.21,8.73,1.79
370564,-4.66,-1.40,16.95,1.06,8.73,1.63
370600,-1.80,-1.05,15.10,1.04,8.73,1.51
370634,2.37,-0.59,15.07,1.10,8.73,1.51
370669,5.74,-2.52,14.30,1.10,8.73,1.60
370704,10.13,-5.82,16.03,0.94,8.73,1.81
370738,11.57,-5.93,17.98,0.77,8.73,1.86
370773,12.58,-6.11,20.10,0.62,8.73,1.82
370808,12.39,-4.86,22.80,0.59,8.73,1.76
370844,12.13,-4.93,26.15,0.71,8.73,1.80
370878,10.15,-6.29,29.43,0.75,8.73,1.87
370913,7.78,-6.16,32.11,0.80,8.73,1.98
370948,5.28,-6.34,33.89,0.70,8.73,2.07
370983,2.29,-5.96,32.65,0.58,8.73,2.11
371018,-1.06,-5.89,32.04,0.49,8.73,2.04
371053,-3.99,-5.13,29.69,0.50,8.73,1.90
371088,-6.19,-3.10,27.95,0.59,8.73,1.76
371123,-5.55,-2.43,25.87,0.85,8.73,1.71
371158,-8.51,-4.94,22.52,0.89,8.73,1.70
371193,-6.91,-2.84,21.24,0.96,8.73,1.76
371228,-4.58,-2.72,16.97,0.85,8.73,1.61
371263,-1.25,0.79,15.48,0.87,8.73,1.42
371298,2.91,0.14,14.91,0.97,8.73,1.35
371333,5.73,-1.75,14.17,1.06,8.73,1.38
371369,7.92,-1.95,14.63,1.09,8.73,1.50
371403,9.84,-3.83,17.68,1.08,8.73,1.58
371437,12.03,-3.97,20.99,1.01,8.73,1.65
371472,12.84,-4.59,24.32,1.02,8.73,1.70
371507,12.35,-6.23,26.61,0.98,8.73,1.70
371542,11.47,-7.48,29.12,0.87,8.73,1.61
371577,8.87,-6.89,31.71,0.81,8.73,1.34
371612,5.50,-5.59,31.79,0.85,8.73,1.13
371647,2.11,-6.10,32.53,0.94,8.73,1.29
371682,-0.80,-6.66,31.90,0.83,8.73,1.57
371717,-3.32,-6.00,29.80,0.63,8.73,1.70
371752,-6.43,-4.55,29.27,0.43,8.73,1.68
371792,-7.44,-2.29,26.07,0.31,8.73,1.52
371827,-8.52,-0.85,23.64,0.26,8.73,1.32
371862,-5.97,0.24,20.97,0.38,8.73,1.23
371897,-2.52,0.76,17.67,0.53,8.73,1.14
371932,0.19,1.64,15.05,0.69,8.73,1.06
371967,0.95,0.92,13.23,0.86,8.73,1.13
372002,4.47,-0.90,14.77,0.95,8.73,1.26
372037,7.46,-2.39,15.65,0.97,8.73,1.43
372072,10.01,-3.84,18.14,0.92,8.73,1.53
372107,11.83,-3.59,21.34,0.93,8.73,1.54
372142,12.85,-4.77,24.36,1.03,8.73,1.58
372178,12.44,-5.45,27.29,1.05,8.73,1.62
372212,10.66,-7.86,29.94,1.00,8.73,1.60
372247,7.74,-6.70,31.85,0.92,8.73,1.38
372282,4.72,-5.36,32.43,0.95,8.73,1.21
372317,1.35,-5.63,32.74,1.06,8.73,1.32
372352,-1.49,-6.36,32.77,1.00,8.73,1.55
372388,-4.40,-7.32,31.64,0.72,8.73,1.80
372422,-5.62,-4.99,28.62,0.48,8.73,1.82
372457,-6.57,-3.49,25.43,0.37,8.73,1.73
372492,-7.74,-1.07,22.65,0.32,8.73,1.57
372527,-5.26,-1.45,19.58,0.55,8.73,1.61
372562,-4.56,-2.66,15.87,0.71,8.73,1.78
372598,-1.89,-3.01,14.14,0.77,8.73,1.93
372632,3.13,-5.25,14.39,0.71,8.73,1.94
372667,5.83,-3.64,13.92,0.66,8.73,1.82
372702,8.07,-1.09,15.23,0.74,8.73,1.66
372737,10.46,-3.35,17.91,0.85,8.73,1.58
372772,11.49,-3.50,20.14,0.80,8.73,1.59
372807,11.81,-5.28,23.50,0.75,8.73,1.56
372842,11.63,-6.91,26.47,0.69,8.73,1.44
372877,11.57,-5.80,30.38,0.65,8.73,1.21
372912,8.71,-4.73,32.86,0.77,8.73,1.03
372947,5.15,-4.31,33.80,0.93,8.73,0.92
372982,1.82,-3.56,35.07,1.16,8.73,0.93
373017,-1.46,-6.68,34.76,1.27,8.73,1.17
373052,-3.92,-5.53,31.90,1.23,8.73,1.37
373087,-4.55,-4.59,27.84,1.05,8.73,1.48
373122,-6.42,-3.71,25.35,0.82,8.73,1.47
373157,-6.55,-0.63,23.10,0.65,8.73,1.33
373192,-5.05,0.76,19.89,0.54,8.73,1.07
373227,-2.74,4.00,17.44,0.55,8.73,0.75
373262,-0.49,4.11,15.47,0.80,8.73,0.73
373297,2.94,0.91,15.17,1.04,8.73,0.94
373332,6.00,-1.75,14.84,1.07,8.73,1.31
373367,9.49,-4.10,15.35,0.97,8.73,1.57
373402,10.19,-5.03,17.18,0.85,8.73,1.65
373437,10.99,-4.69,19.94,0.79,8.73,1.68
373472,11.94,-5.55,23.69,0.79,8.73,1.66
373507,11.53,-4.26,27.47,0.85,8.73,1.67
373542,10.12,-5.71,30.84,0.95,8.73,1.80
373577,8.27,-6.23,33.70,0.97,8.73,1.90
373612,4.69,-7.33,34.18,0.95,8.73,1.96
373647,0.80,-7.00,34.59,0.88,8.73,1.94
373682,-1.75,-4.87,33.26,0.87,8.73,1.86
373717,-4.84,-5.01,31.52,1.01,8.73,1.75
373752,-5.04,-5.41,27.38,0.98,8.73,1.79
373787,-5.32,-4.96,23.88,0.93,8.73,1.78
373827,-5.28,-3.45,20.24,0.83,8.73,1.75
373862,-4.79,-2.04,17.45,0.84,8.73,1.78
373897,-2.47,-2.81,15.11,0.94,8.73,1.94
373933,-1.70,-5.79,13.85,0.87,8.73,2.04
373967,2.68,-5.63,14.09,0.74,8.73,2.02
374002,7.13,-2.67,14.40,0.64,8.73,1.94
374037,8.16,-3.04,15.59,0.71,8.73,1.81
374072,10.50,-6.52,18.83,0.65,8.73,1.78
374107,12.28,-4.88,22.31,0.55,8.73,1.73
374142,12.75,-5.29,25.07,0.54,8.73,1.65
374177,11.77,-5.50,28.92,0.61,8.73,1.59
374212,8.70,-4.62,30.86,0.68,8.73,1.61
374247,7.59,-5.65,33.73,0.75,8.73,1.77
374282,3.83,-6.72,33.89,0.72,8.73,1.85
374317,0.03,-6.32,32.63,0.63,8.73,1.85
374352,-2.65,-5.39,30.78,0.56,8.73,1.81
374387,-4.79,-3.22,29.81,0.60,8.73,1.68
374422,-6.81,-3.09,27.81,0.61,8.73,1.60
374457,-8.23,-2.87,25.21,0.61,8.73,1.54
374492,-7.10,-1.15,22.33,0.56,8.73,1.41
374527,-4.57,0.60,18.81,0.60,8.73,1.25
374562,-3.65,1.14,16.77,0.78,8.73,1.22
374597,-0.62,-1.03,15.48,0.94,8.73,1.33
374632,3.27,-2.11,15.51,1.01,8.73,1.57
374667,7.00,-0.48,15.81,1.12,8.73,1.57
374702,10.24,-0.79,18.04,1.39,8.73,1.52
374737,12.56,-0.84,21.33,1.65,8.73,1.59
374772,13.81,-2.17,24.33,1.89,8.73,1.80
374807,12.76,-6.32,25.97,1.82,8.73,2.05
374842,11.11,-8.76,28.79,1.60,8.73,2.16
374878,9.05,-8.79,31.57,1.31,8.73,2.03
374912,5.49,-7.71,32.78,1.12,8.73,1.88
374947,2.60,-6.01,33.92,1.11,8.73,1.80
374982,-0.47,-7.14,33.82,1.15,8.73,1.80
375017,-2.68,-6.14,31.06,1.18,8.73,1.85
375052,-5.32,-6.43,29.18,1.23,8.73,1.89
375087,-6.21,-5.86,26.37,1.31,8.73,1.98
375122,-6.62,-6.20,22.54,1.40,8.73,2.13
375157,-6.37,-7.86,18.70,1.34,8.73,2.34
375191,-5.43,-7.78,16.52,1.20,8.73,2.48
375225,-2.11,-7.96,15.16,0.96,8.73,2.45
375260,0.95,-6.08,14.13,0.77,8.73,2.32
375294,3.81,-4.79,14.72,0.67,8.73,2.14
375329,7.25,-4.27,15.78,0.61,8.73,2.03
375364,10.25,-4.96,17.11,0.59,8.73,1.92
375399,11.40,-5.17,21.20,0.54,8.73,1.84
375434,12.87,-3.59,24.65,0.65,8.73,1.76
375469,12.47,-3.90,27.38,0.82,8.73,1.77
375504,11.42,-4.84,30.21,0.92,8.73,1.86
375539,9.03,-5.73,32.64,0.93,8.73,1.91
375575,5.16,-6.19,33.10,0.88,8.73,1.98
375609,1.69,-6.08,34.12,0.82,8.73,1.91
375644,-0.69,-4.54,33.74,0.89,8.73,1.72
375679,-3.42,-4.35,32.68,1.01,8.73,1.61
375713,-5.94,-4.82,30.41,1.05,8.73,1.65
375747,-7.64,-4.91,28.23,0.92,8.73,1.71
375782,-6.83,-4.23,24.11,0.79,8.73,1.68
375817,-4.68,-1.31,20.88,0.66,8.73,1.53
375857,-2.63,2.60,17.36,0.64,8.73,1.31
375892,-0.31,0.56,15.90,0.79,8.73,1.26
375928,2.09,-2.51,14.90,0.83,8.73,1.47
375962,5.20,-3.32,14.87,0.77,8.73,1.61
375997,9.03,-4.27,16.59,0.67,8.73,1.67
376032,11.77,-5.11,19.51,0.58,8.73,1.67
376068,12.64,-6.15,22.19,0.47,8.73,1.55
376102,12.25,-7.01,24.32,0.29,8.73,1.31
376137,10.99,-5.16,27.42,0.25,8.73,1.02
376172,11.27,-4.33,30.98,0.31,8.73,0.74
376207,8.07,-1.72,34.04,0.59,8.73,0.52
376241,4.28,-3.21,34.49,0.89,8.73,0.57
376276,0.97,-4.58,34.55,1.18,8.73,0.88
376310,-1.65,-5.11,34.24,1.16,8.73,1.24
376346,-5.10,-4.92,33.20,0.96,8.73,1.48
376381,-5.90,-3.61,29.60,0.89,8.73,1.55
376415,-6.70,-3.49,26.25,0.76,8.73,1.53
376450,-6.48,0.29,23.91,0.81,8.73,1.51
376485,-4.53,-1.51,19.71,0.93,8.73,1.56
376520,-0.53,-1.58,16.58,1.02,8.73,1.70
376555,2.99,-3.52,14.73,1.04,8.73,1.90
376590,5.63,-5.16,13.82,0.91,8.73,2.05
376625,6.73,-4.66,14.61,0.78,8.73,2.06
376660,9.09,-3.56,17.28,0.80,8.73,1.94
376695,10.90,-2.08,19.97,0.95,8.73,1.87
376730,12.65,-1.93,22.53,1.13,8.73,1.92
376764,13.29,-3.23,25.42,1.22,8.73,2.07
376799,11.73,-5.84,29.17,1.21,8.73,2.24
376834,9.06,-5.88,32.09,1.08,8.73,2.37
376869,5.00,-7.80,32.07,0.93,8.73,2.47
376904,2.77,-7.28,33.04,0.75,8.73,2.39
376939,0.48,-5.66,34.65,0.67,8.73,2.18
376974,-2.24,-3.76,33.21,0.79,8.73,1.97
377009,-4.45,-4.33,29.70,1.01,8.73,1.87
377044,-5.87,-5.68,26.41,1.21,8.73,1.91
377079,-6.82,-4.86,23.34,1.24,8.73,2.01
377114,-4.97,-5.70,18.80,1.22,8.73,2.13
377149,-3.25,-4.91,16.24,1.10,8.73,2.17
377184,-1.52,-4.47,14.05,0.98,8.73,2.19
377219,1.32,-5.63,13.98,0.88,8.73,2.24
377254,4.13,-6.11,13.96,0.72,8.73,2.23
377289,6.56,-3.67,13.88,0.62,8.73,2.14
377325,9.18,-3.60,16.46,0.63,8.73,2.01
377359,11.13,-4.08,19.69,0.70,8.73,1.91
377394,12.17,-3.64,23.21,0.75,8.73,1.87
377429,11.32,-5.53,26.79,0.83,8.73,1.88
377464,10.86,-6.52,30.01,0.80,8.73,1.85
377498,8.89,-5.51,32.68,0.75,8.73,1.80
377532,5.76,-5.83,33.67,0.72,8.73,1.70
377567,2.92,-5.48,34.51,0.75,8.73,1.58
377602,-0.69,-5.76,33.82,0.80,8.73,1.51
377637,-2.99,-4.94,31.61,0.82,8.73,1.55
377671,-5.33,-4.50,29.75,0.68,8.73,1.60
377705,-5.75,-2.77,26.54,0.61,8.73,1.55
377739,-6.06,-2.15,23.13,0.59,8.73,1.46
377774,-5.52,0.67,21.42,0.71,8.73,1.41
377809,-2.77,-0.61,17.25,0.81,8.73,1.39
377844,-1.20,1.82,15.00,0.89,8.73,1.17
377884,1.13,1.08,14.30,1.04,8.73,1.13
377919,4.57,0.75,14.63,1.20,8.73,1.15
377953,7.74,-0.49,15.48,1.34,8.73,1.25
377987,9.68,-3.84,16.79,1.29,8.73,1.48
378022,11.51,-5.52,19.44,1.13,8.73,1.65
378057,12.61,-7.36,23.06,0.97,8.73,1.69
378092,12.15,-6.64,27.25,0.90,8.73,1.66
378127,10.34,-5.34,29.96,0.88,8.73,1.66
378162,8.64,-6.58,32.22,0.89,8.73,1.73
378197,5.54,-6.04,32.59,0.85,8.73,1.86
378232,2.48,-7.30,32.40,0.80,8.73,1.91
378267,-0.86,-6.74,33.46,0.75,8.73,1.88
378301,-3.52,-5.86,31.52,0.72,8.73,1.82
378336,-6.00,-4.45,29.44,0.80,8.73,1.74
378371,-6.73,-3.60,25.98,0.86,8.73,1.72
378406,-6.60,-3.60,22.39,0.88,8.73,1.70
378440,-5.26,-2.47,19.85,0.90,8.73,1.70
378475,-4.75,-2.73,17.70,0.89,8.73,1.63
378510,-3.11,-1.49,15.75,0.87,8.73,1.48
378544,1.62,-0.94,15.15,0.94,8.73,1.40
378578,4.02,0.04,15.54,1.06,8.73,1.36
378612,7.19,-2.09,16.59,1.15,8.73,1.45
378648,10.44,-3.96,18.20,1.17,8.73,1.57
378682,12.71,-5.70,20.98,1.14,8.73,1.65
378717,13.01,-5.64,23.31,1.09,8.73,1.68
378753,11.82,-6.21,26.61,1.08,8.73,1.73
378787,10.36,-5.60,29.65,1.04,8.73,1.78
378822,9.31,-6.78,32.74,1.05,8.73,1.92
378857,5.61,-7.69,33.01,1.02,8.73,2.03
378892,2.11,-7.82,32.43,0.92,8.73,2.07
378926,-0.71,-7.11,32.83,0.86,8.73,2.03
378961,-4.03,-6.20,31.74,0.85,8.73,1.95
378996,-5.91,-4.52,29.48,0.87,8.73,1.90
379032,-7.19,-4.67,26.53,0.88,8.73,1.87
379066,-8.04,-4.21,23.76,0.87,8.73,1.84
379101,-6.48,-3.95,21.10,0.89,8.73,1.84
379136,-4.57,-3.68,18.22,0.86,8.73,1.79
379170,-1.57,-2.15,16.58,0.81,8.73,1.63
379204,3.23,-0.18,16.17,0.86,8.73,1.52
379238,6.28,-1.23,15.50,0.99,8.73,1.36
379273,8.45,-0.85,16.91,1.12,8.73,1.36
379307,9.88,-2.94,18.51,1.16,8.73,1.43
379343,11.90,-4.61,21.28,1.07,8.73,1.52
379377,11.85,-7.46,24.22,0.91,8.73,1.51
379412,12.16,-6.41,27.78,0.76,8.73,1.39
379446,11.43,-5.97,30.87,0.76,8.73,1.27
379481,7.94,-5.60,32.61,0.88,8.73,1.23
379516,4.84,-4.18,34.19,1.01,8.73,1.20
379550,1.80,-5.47,35.19,1.16,8.73,1.33
379585,-0.86,-6.75,33.61,1.20,8.73,1.52
379620,-3.94,-6.29,32.09,1.20,8.73,1.64
379655,-5.73,-5.09,29.95,1.12,8.73,1.74
379690,-6.65,-4.30,26.78,1.06,8.73,1.80
379725,-7.57,-3.89,23.80,1.04,8.73,1.81
379760,-6.30,-4.12,20.91,1.02,8.73,1.84
379795,-3.73,-3.37,17.65,0.97,8.73,1.86
379830,-1.02,-2.11,15.65,0.93,8.73,1.86
379866,3.24,-2.57,15.97,0.91,8.73,1.87
379905,7.45,-1.88,16.58,0.97,8.73,1.75
379940,9.96,-1.06,19.62,1.15,8.73,1.68
379975,12.10,-3.09,22.03,1.27,8.73,1.69
380010,12.81,-4.73,24.11,1.24,8.73,1.74
380045,12.21,-6.20,27.24,1.12,8.73,1.78
380080,11.21,-6.99,30.60,0.96,8.73,1.67
380115,9.08,-5.64,33.80,0.88,8.73,1.54
380150,6.03,-4.95,35.27,0.93,8.73,1.44
380185,2.57,-5.35,36.49,1.03,8.73,1.44
380220,-0.24,-4.95,35.87,1.10,8.73,1.51
380255,-3.11,-6.13,33.02,1.10,8.73,1.66
380290,-5.72,-5.85,30.62,1.02,8.73,1.77
380325,-5.58,-4.07,27.08,0.96,8.73,1.77
380360,-6.09,-3.62,23.61,0.86,8.73,1.71
380395,-5.61,-0.96,21.13,0.85,8.73,1.67
380429,-5.18,-2.55,17.60,0.93,8.73,1.68
380464,0.07,-1.75,16.97,0.94,8.73,1.74
380499,4.15,-3.86,16.50,0.93,8.73,1.88
380533,5.75,-3.80,16.44,0.86,8.73,1.89
380568,8.32,-4.63,18.14,0.83,8.73,1.85
380603,11.41,-4.08,21.22,0.80,8.73,1.83
380637,12.27,-3.24,23.85,0.89,8.73,1.79
380672,11.85,-4.36,27.87,0.99,8.73,1.80
380707,11.50,-5.84,31.51,1.06,8.73,1.83
380742,9.54,-5.48,34.74,1.04,8.73,1.81
380777,5.90,-7.27,35.90,1.02,8.73,1.71
380811,3.45,-4.41,36.20,1.06,8.73,1.58
380847,-0.41,-6.06,35.44,1.13,8.73,1.57
380881,-2.81,-4.49,33.61,1.23,8.73,1.58
380915,-5.89,-5.88,32.48,1.24,8.73,1.69
380950,-5.77,-5.51,28.84,1.19,8.73,1.80
380985,-7.23,-4.17,24.75,1.04,8.73,1.84
381020,-6.03,-3.79,21.51,0.98,8.73,1.83
381055,-3.27,-2.12,18.53,0.89,8.73,1.81
381090,-1.32,-2.94,17.67,0.94,8.73,1.85
381124,3.17,-3.38,17.05,0.89,8.73,1.83
381159,6.86,-3.02,15.63,0.90,8.73,1.81
381194,7.42,-3.47,17.29,0.85,8.73,1.88
381229,10.29,-4.69,21.13,0.90,8.73,1.86
381264,12.47,-4.36,22.98,0.84,8.73,1.83
381299,11.80,-4.25,27.36,0.85,8.73,1.80
381335,11.56,-5.95,31.63,0.90,8.73,1.79
381369,9.65,-5.39,34.69,0.91,8.73,1.75
381404,5.79,-6.20,35.88,0.95,8.73,1.71
381439,3.39,-5.35,35.34,0.99,8.73,1.66
381474,-0.01,-5.57,36.26,1.07,8.73,1.66
381509,-3.39,-4.78,34.23,1.18,8.73,1.66
381544,-4.46,-5.00,30.74,1.28,8.73,1.72
381579,-5.99,-4.74,27.46,1.31,8.73,1.83
381614,-6.99,-4.90,24.02,1.36,8.73,1.96
381649,-7.19,-6.83,22.21,1.33,8.73,2.14
381684,-4.87,-6.10,18.85,1.19,8.73,2.25
381719,-0.45,-4.59,16.92,1.05,8.73,2.32
381754,2.02,-5.57,16.00,0.91,8.73,2.26
381789,6.93,-4.71,16.75,0.80,8.73,2.14
381824,10.30,-3.93,18.05,0.76,8.73,2.06
381859,10.91,-4.59,20.78,0.79,8.73,1.98
381894,12.58,-4.49,22.84,0.72,8.73,1.94
381934,11.98,-5.41,27.34,0.66,8.73,1.88
381969,11.06,-5.61,30.37,0.65,8.73,1.82
382004,8.77,-5.58,32.99,0.67,8.73,1.72
382039,5.77,-6.05,35.68,0.75,8.73,1.68
382074,3.43,-4.87,35.84,0.77,8.73,1.64
382109,-0.16,-5.51,34.41,0.76,8.73,1.71
382144,-3.72,-4.37,32.14,0.68,8.73,1.74
382179,-4.85,-3.54,30.12,0.60,8.73,1.73
382214,-5.07,-1.33,26.76,0.63,8.73,1.67
382249,-7.30,-1.09,23.87,0.79,8.73,1.62
382284,-6.05,-1.79,21.63,0.96,8.73,1.69
382318,-5.89,-2.59,19.21,1.05,8.73,1.76
382353,-3.44,-1.67,18.60,1.05,8.73,1.73
382387,2.09,0.13,17.72,1.07,8.73,1.60
382422,5.85,-1.08,16.64,1.18,8.73,1.48
382457,9.61,1.36,17.38,1.34,8.73,1.46
382492,12.40,-2.50,19.67,1.46,8.73,1.54
382527,11.82,-5.03,21.64,1.33,8.73,1.67
382562,12.16,-6.60,24.82,1.14,8.73,1.73
382597,12.17,-6.60,28.39,0.98,8.73,1.70
382632,10.07,-6.96,31.43,0.87,8.73,1.60
382667,8.15,-4.77,33.50,0.88,8.73,1.47
382702,4.96,-5.35,34.12,0.97,8.73,1.46
382737,1.47,-5.93,33.98,1.10,8.73,1.49
382772,-0.83,-5.21,32.31,1.22,8.73,1.52
382807,-4.80,-4.40,32.10,1.31,8.73,1.58
382842,-6.69,-5.09,29.39,1.43,8.73,1.71
382877,-6.71,-5.86,25.20,1.42,8.73,1.83
382912,-8.00,-5.90,22.51,1.30,8.73,1.91
382947,-5.73,-3.73,19.53,1.16,8.73,1.91
382982,-4.18,-2.60,16.67,1.02,8.73,1.79
383017,-0.36,-0.49,15.62,1.00,8.73,1.64
383052,3.02,-0.74,15.92,1.05,8.73,1.55
383087,6.29,-1.92,15.67,1.08,8.73,1.56
383122,9.15,-3.32,16.77,1.09,8.73,1.62
383157,12.11,-4.76,20.60,0.98,8.73,1.68
383192,12.54,-5.50,23.70,0.84,8.73,1.67
383227,12.11,-5.20,25.78,0.77,8.73,1.60
383262,11.57,-6.27,28.28,0.78,8.73,1.53
383297,8.90,-4.17,30.62,0.75,8.73,1.44
383332,6.87,-5.37,32.15,0.83,8.73,1.43
383367,3.87,-5.64,34.18,0.91,8.73,1.43
383402,-0.37,-5.82,34.37,0.89,8.73,1.52
383437,-2.69,-4.97,32.01,0.84,8.73,1.65
383472,-4.21,-3.97,29.79,0.75,8.73,1.70
383507,-6.09,-3.53,28.23,0.64,8.73,1.68
383542,-6.47,-2.41,25.43,0.61,8.73,1.62
383577,-7.10,-0.67,22.43,0.62,8.73,1.58
383612,-4.14,-1.03,18.91,0.77,8.73,1.62
383647,-1.42,-3.46,15.74,0.83,8.73,1.72
383682,0.64,-4.01,13.75,0.80,8.73,1.88
383717,4.40,-5.94,13.54,0.65,8.73,2.04
383752,7.56,-5.80,14.68,0.47,8.73,2.11
383787,9.47,-6.84,16.17,0.29,8.73,2.01
383822,11.03,-5.76,18.73,0.20,8.73,1.85
383857,12.94,-3.93,22.66,0.22,8.73,1.67
383892,12.57,-3.71,25.80,0.33,8.73,1.55
383927,11.28,-4.32,29.08,0.51,8.73,1.49
383967,8.30,-5.12,32.03,0.65,8.73,1.46
384002,5.94,-4.84,33.34,0.69,8.73,1.43
384037,3.24,-4.84,34.42,0.77,8.73,1.45
384072,-0.51,-5.13,33.20,0.80,8.73,1.51
384107,-3.83,-4.62,31.51,0.80,8.73,1.52
384142,-6.16,-4.25,30.08,0.75,8.73,1.55
384177,-5.58,-2.35,26.33,0.74,8.73,1.54
384212,-5.92,-1.93,22.74,0.71,8.73,1.47
384247,-5.28,0.57,20.25,0.78,8.73,1.42
384282,-3.19,-1.08,17.01,0.87,8.73,1.42
384317,-0.73,-0.16,14.64,0.95,8.73,1.43
384352,2.91,-1.13,13.71,1.00,8.73,1.47
384387,5.28,-1.43,13.71,1.05,8.73,1.53
384422,6.70,-0.82,13.96,1.07,8.73,1.62
384457,9.82,-1.81,15.94,1.17,8.73,1.65
384492,11.12,-2.09,17.89,1.22,8.73,1.71
384527,12.35,-2.28,21.27,1.30,8.73,1.82
384562,12.20,-4.34,24.63,1.37,8.73,1.99
384597,11.62,-6.34,27.23,1.33,8.73,2.16
384632,9.29,-6.62,29.68,1.20,8.73,2.24
384667,6.46,-7.50,31.15,1.02,8.73,2.21
384701,3.98,-6.98,32.57,0.91,8.73,2.13
384736,0.67,-6.73,32.81,0.94,8.73,1.96
384771,-1.92,-5.69,30.27,1.01,8.73,1.84
384806,-4.58,-4.76,28.43,1.05,8.73,1.80
384841,-6.34,-4.76,25.71,1.11,8.73,1.81
384876,-6.01,-4.89,21.62,1.12,8.73,1.86
384911,-5.67,-4.71,18.63,1.11,8.73,1.93
384946,-5.63,-4.28,15.61,1.05,8.73,1.99
384980,-5.76,-4.63,13.18,0.96,8.73,1.99
385016,-1.14,-3.84,12.91,0.88,8.73,2.00
385050,1.97,-3.32,11.64,0.79,8.72,1.95
385085,4.29,-2.22,10.41,0.77,8.73,1.84
385120,6.72,-2.50,13.42,0.82,8.73,1.76
385155,10.02,-2.78,16.27,0.85,8.73,1.68
385191,11.25,-3.83,18.35,0.92,8.73,1.63
385225,12.33,-5.08,20.68,0.92,8.73,1.58
385260,12.30,-4.71,24.07,0.82,8.73,1.53
385295,10.70,-5.91,27.10,0.77,8.73,1.43
385331,8.58,-5.62,29.75,0.76,8.73,1.26
385366,5.75,-4.24,31.41,0.83,8.73,1.14
385400,3.02,-4.48,31.86,0.96,8.73,1.16
385435,0.03,-4.12,31.10,1.06,8.73,1.27
385470,-2.55,-4.13,29.35,1.08,8.73,1.38
385505,-5.39,-4.73,27.86,1.01,8.73,1.48
385540,-5.85,-2.97,24.77,0.93,8.73,1.54
385575,-6.87,-2.63,21.54,0.91,8.73,1.54
385610,-8.22,-1.08,19.67,0.94,8.73,1.56
385645,-5.18,-1.87,16.80,0.99,8.73,1.62
385680,-2.83,-2.15,13.76,1.02,8.73,1.67
385715,-0.32,-2.22,12.03,1.01,8.73,1.70
385750,2.59,-2.79,11.45,0.99,8.73,1.70
385785,4.77,-2.14,11.64,1.00,8.73,1.71
385821,7.38,-2.16,13.95,1.05,8.73,1.69
385855,9.33,-2.66,15.70,1.11,8.73,1.69
385890,11.93,-4.01,18.54,1.10,8.73,1.74
385926,12.04,-5.02,22.10,1.00,8.73,1.79
385960,11.88,-5.98,24.93,0.86,8.73,1.76
386000,10.83,-6.90,26.93,0.69,8.69,1.61
386035,8.71,-5.45,28.86,0.64,8.62,1.46
386070,5.42,-5.60,29.65,0.63,8.58,1.38
386105,2.43,-4.94,30.11,0.62,8.62,1.39
386140,-0.85,-4.95,30.38,0.57,8.62,1.43
386175,-3.40,-4.50,28.58,0.45,8.67,1.46
386210,-4.89,-4.56,26.08,0.26,8.70,1.44
386245,-5.21,-1.13,23.36,0.13,8.72,1.30
386280,-7.52,-0.65,21.59,0.10,8.73,1.07
386316,-7.67,1.33,20.48,0.16,8.73,0.86
386350,-6.56,2.27,17.94,0.38,8.73,0.75
386386,-5.65,2.78,16.03,0.64,8.73,0.71
386420,-2.15,1.19,15.35,0.90,8.73,0.82
386455,2.27,0.28,14.06,1.10,8.73,1.01
386490,6.30,-1.05,13.56,1.25,8.73,1.25
386525,9.69,-3.55,15.50,1.30,8.73,1.42
386560,10.43,-4.72,17.70,1.31,8.73,1.58
386595,11.23,-4.35,20.68,1.35,8.73,1.75
386630,11.97,-5.10,24.76,1.36,8.73,1.97
386665,11.72,-8.91,27.79,1.35,8.73,2.19
386700,9.56,-8.86,30.58,1.22,8.73,2.35
386735,6.95,-9.62,32.97,1.01,8.73,2.46
386770,3.21,-10.79,34.17,0.73,8.73,2.53
386806,1.00,-8.43,34.12,0.51,8.73,2.40
386841,-2.47,-8.49,33.05,0.29,8.73,2.26
386875,-6.22,-7.16,32.96,0.05,8.73,2.08
386910,-6.71,-5.02,30.23,-0.16,8.73,1.82
386945,-6.25,-0.15,26.92,-0.33,8.73,1.35
386980,-8.11,0.95,23.38,-0.16,8.73,0.93
387015,-5.42,5.82,21.44,0.13,8.73,0.53
387050,-0.92,5.99,20.12,0.56,8.73,0.36
387085,3.22,2.51,19.00,0.98,8.73,0.64
387120,6.94,-1.10,19.26,1.35,8.73,0.92
387155,10.68,0.44,21.94,1.58,8.73,1.18
387190,13.00,-4.79,24.85,1.59,8.73,1.48
387225,12.92,-7.36,29.01,1.72,8.73,1.74
387260,13.93,-6.84,32.21,1.65,8.73,1.93
387296,10.14,-9.60,33.80,1.44,8.73,2.18
387330,7.85,-10.95,35.24,1.32,8.73,2.25
387366,4.85,-9.67,35.75,1.09,8.73,2.24
387400,0.65,-10.66,34.13,1.06,8.73,2.09
387435,-1.58,-9.10,32.96,0.89,8.73,2.08
387470,-4.04,-8.96,30.44,0.71,8.73,2.12
387505,-6.34,-7.68,28.87,0.41,8.73,2.04
387540,-6.16,-5.40,25.27,0.17,8.73,1.81
387575,-6.65,-1.31,23.61,-0.01,8.73,1.47
387610,-5.89,2.32,21.52,0.16,8.73,1.17
387645,-3.49,0.83,18.17,0.49,8.73,1.09
387680,1.80,-0.66,18.35,0.79,8.73,1.15
387715,7.07,-2.74,17.86,0.90,8.73,1.28
387750,8.91,-0.43,17.22,1.17,8.73,1.34
387785,11.69,-3.21,22.39,1.30,8.73,1.40
387821,13.71,-3.76,23.74,1.49,8.73,1.58
387855,14.03,-5.77,26.88,1.52,8.73,1.78
387890,11.62,-8.41,29.84,1.54,8.73,1.97
387925,10.59,-8.33,32.19,1.34,8.73,2.16
387960,6.91,-9.80,33.47,1.22,8.73,2.25
387995,3.45,-10.55,34.25,1.02,8.73,2.31
388035,-0.42,-10.28,34.00,0.72,8.73,2.35
388070,-3.56,-8.84,33.81,0.41,8.73,2.33
388105,-5.96,-7.41,32.83,0.13,8.73,2.25
388140,-7.05,-3.86,29.80,0.09,8.73,2.00
388174,-4.90,-3.55,24.44,0.24,8.73,1.79
388209,-2.70,-1.84,20.07,0.48,8.73,1.68
388244,-1.37,-1.91,17.36,0.71,8.73,1.72
388279,0.24,-5.19,15.24,0.81,8.73,1.79
388315,2.88,-3.29,15.20,0.85,8.73,1.65
388349,6.03,-0.55,14.91,1.02,8.73,1.41
388385,9.27,2.49,16.92,1.40,8.73,1.29
388419,11.28,-0.98,19.67,1.84,8.73,1.37
388454,13.22,-2.53,22.00,2.04,8.73,1.69
388489,12.72,-6.60,25.12,2.14,8.73,2.11
388524,11.88,-10.09,28.35,1.95,8.73,2.50
388559,9.51,-9.63,31.51,1.56,8.73,2.73
388594,6.73,-13.00,34.09,1.19,8.73,2.76
388629,3.44,-9.63,35.85,0.81,8.73,2.68
388664,-0.31,-14.14,35.62,0.62,8.73,2.64
388699,-3.76,-8.65,36.04,0.51,8.73,2.60
388734,-5.27,-7.56,34.35,0.38,8.73,2.43
388769,-5.40,-5.04,29.72,0.59,8.73,2.15
388804,-4.71,-5.31,22.35,0.59,8.73,1.92
388839,-3.35,-5.40,18.98,0.77,8.73,1.79
388875,-1.24,-2.47,17.63,0.68,8.73,1.63
388910,-0.65,-2.50,15.99,0.81,8.73,1.41
388944,1.87,0.39,16.24,0.96,8.73,1.25
388979,5.79,1.16,17.24,1.28,8.73,1.20
389014,9.67,-1.20,18.77,1.57,8.73,1.31
389049,12.07,-1.62,20.69,1.85,8.73,1.50
389084,12.78,-2.74,23.92,2.16,8.73,1.85
389118,11.70,-7.82,27.40,2.26,8.73,2.24
389153,10.69,-10.92,31.20,2.06,8.73,2.64
389187,9.09,-11.82,35.00,1.70,8.73,2.90
389222,4.99,-14.47,34.34,1.33,8.73,2.90
389257,1.86,-10.08,37.31,0.93,8.73,2.68
389291,-1.07,-9.44,39.09,0.60,8.73,2.64
389326,-4.28,-13.08,35.48,0.40,8.73,2.53
389361,-5.33,-5.87,31.58,0.13,8.73,2.29
389397,-4.06,-4.90,26.24,-0.01,8.73,2.00
389431,-6.33,-3.22,24.49,0.14,8.73,1.70
389465,-7.95,-0.33,22.99,0.28,8.73,1.59
389500,-2.03,-4.07,19.75,0.65,8.73,1.67
389535,4.58,-2.75,18.59,0.74,8.73,1.69
389570,9.14,-4.11,18.41,0.84,8.73,1.60
389605,10.62,-2.28,17.54,1.03,8.73,1.43
389640,12.56,-1.85,19.62,1.34,8.73,1.39
389675,12.67,-2.18,21.69,1.64,8.73,1.51
389710,12.92,-3.41,24.98,1.93,8.73,1.84
389745,11.82,-6.01,28.07,2.01,8.73,2.35
389780,10.52,-9.97,31.16,1.84,8.73,2.80
389815,8.34,-13.45,34.38,1.48,8.73,3.10
389850,4.10,-14.94,35.65,1.17,8.73,3.11
389885,-0.01,-9.69,39.28,0.97,8.73,2.81
389920,-1.98,-10.66,35.12,0.79,8.73,2.67
389955,-5.11,-7.95,31.91,0.96,8.73,2.36
389990,-4.76,-7.44,27.11,0.85,8.73,2.24
390025,-6.40,-7.96,23.81,0.82,8.73,2.13
390065,-5.29,-6.44,20.94,0.66,8.73,2.02
390100,-2.97,-4.30,17.47,0.58,8.73,1.81
390135,0.93,-1.35,15.88,0.61,8.73,1.54
390170,4.42,-0.63,15.63,0.76,8.73,1.30
390205,6.59,-0.74,15.73,0.97,8.73,1.15
390241,5.82,0.44,14.39,1.17,8.73,1.24
390275,11.21,-2.44,20.53,1.42,8.73,1.31
390310,12.31,-3.98,22.82,1.63,8.73,1.50
390346,12.26,-5.55,26.53,1.59,8.73,1.72
390380,12.31,-8.51,29.17,1.51,8.73,1.91
390415,9.32,-8.07,32.22,1.35,8.73,1.95
390450,5.22,-8.71,33.59,1.22,8.73,2.00
390484,3.72,-9.21,34.53,1.03,8.73,2.10
390519,0.72,-8.80,35.04,0.99,8.73,2.10
390554,-3.18,-7.54,31.92,0.87,8.73,2.12
390589,-5.37,-6.76,29.15,0.77,8.73,2.07
390624,-5.47,-6.26,25.70,0.71,8.73,1.98
390659,-5.75,-5.41,22.89,0.62,8.73,1.89
390694,-6.27,-4.58,20.34,0.58,8.73,1.83
390729,-4.75,-2.49,17.80,0.59,8.73,1.76
390764,-0.92,-2.56,15.19,0.65,8.73,1.71
390799,-0.38,-3.71,14.10,0.68,8.73,1.79
390834,5.55,-7.05,13.83,0.59,8.73,1.88
390869,8.61,-6.26,13.54,0.44,8.73,1.98
390904,9.96,-6.42,16.34,0.32,8.73,1.92
390939,11.08,-5.83,18.64,0.29,8.73,1.79
390974,11.42,-3.00,22.40,0.40,8.73,1.69
391009,11.70,-4.19,25.68,0.66,8.73,1.70
391044,10.90,-4.61,28.77,0.89,8.73,1.86
391079,8.30,-7.30,30.49,0.94,8.73,2.00
391114,6.94,-7.94,33.21,0.85,8.73,2.21
391149,3.25,-7.60,33.62,0.67,8.73,2.37
391184,-0.75,-7.34,33.85,0.51,8.73,2.27
391219,-2.51,-5.05,31.83,0.33,8.73,2.18
391254,-5.30,-4.65,29.97,0.27,8.73,1.95
391289,-5.36,-2.94,26.51,0.39,8.73,1.76
391324,-6.26,-2.18,22.73,0.47,8.73,1.62
391359,-5.81,-1.24,19.82,0.58,8.73,1.54
391394,-2.51,-1.99,16.90,0.66,8.73,1.47
391429,-0.56,-0.02,14.98,0.72,8.73,1.31
391464,1.92,0.38,14.27,0.88,8.73,1.21
391499,5.63,0.11,15.14,1.06,8.73,1.20
391534,7.82,-0.66,15.89,1.19,8.73,1.31
391569,10.39,-2.50,18.00,1.28,8.73,1.47
391604,12.16,-3.34,20.33,1.41,8.73,1.59
391639,13.75,-4.88,23.03,1.52,8.73,1.74
391674,11.96,-4.94,26.37,1.49,8.73,1.94
391709,9.86,-7.95,30.34,1.44,8.73,2.17
391744,8.75,-8.51,32.88,1.30,8.73,2.28
391779,6.03,-8.37,33.38,1.10,8.73,2.35
391815,1.43,-8.89,32.60,0.87,8.73,2.33
391849,-2.27,-8.13,32.50,0.74,8.73,2.27
391884,-4.21,-6.51,31.11,0.65,8.73,2.14
391919,-5.24,-5.34,28.41,0.56,8.73,2.01
391954,-5.58,-4.80,24.65,0.54,8.73,1.88
391989,-7.49,-4.78,21.80,0.49,8.73,1.76
392024,-6.56,-3.55,19.51,0.43,8.73,1.67
392059,-4.53,-2.11,16.60,0.44,8.73,1.57
392099,-1.26,-2.01,14.38,0.46,8.73,1.49
392134,3.12,-2.70,13.65,0.47,8.73,1.40
392169,6.75,-3.63,14.52,0.44,8.73,1.51
392204,8.89,-6.38,14.94,0.28,8.73,1.63
392239,11.27,-7.43,17.97,0.07,8.73,1.56
392273,11.12,-6.36,20.41,-0.17,8.73,1.42
392308,10.58,-4.43,23.12,-0.21,8.73,1.15
392344,11.03,-3.01,26.06,0.03,8.73,0.96
392378,10.68,-2.30,29.12,0.37,8.73,0.94
392413,8.38,-2.83,31.69,0.70,8.73,1.10
392448,5.55,-4.64,32.47,0.85,8.73,1.37
392483,1.65,-5.10,32.65,0.83,8.73,1.57
392518,-1.25,-5.15,31.08,0.78,8.73,1.63
392553,-3.49,-4.38,28.61,0.81,8.73,1.59
392588,-5.48,-4.68,26.37,0.84,8.73,1.55
392623,-6.97,-2.31,25.46,1.00,8.73,1.55
392657,-7.50,-3.54,21.48,0.99,8.73,1.57
392692,-7.10,-2.51,19.33,0.96,8.73,1.57
392726,-5.84,-2.65,17.13,0.94,8.73,1.58
392761,-2.70,-0.90,15.03,0.87,8.73,1.36
392796,1.02,0.43,13.47,0.96,8.73,1.25
392831,4.57,-0.04,12.88,1.07,8.73,1.28
392866,7.14,-1.59,13.58,1.11,8.73,1.41
392901,8.82,-3.97,14.08,1.06,8.73,1.56
392936,10.10,-5.74,16.76,0.90,8.73,1.68
392971,11.36,-4.19,20.21,0.86,8.73,1.70
393006,12.82,-4.79,23.68,0.82,8.73,1.70
393041,11.79,-5.61,26.49,0.91,8.73,1.75
393076,9.45,-5.96,28.16,0.90,8.73,1.79
393111,8.14,-6.40,31.18,0.90,8.73,1.87
393146,4.47,-6.25,30.99,0.81,8.73,1.94
393181,0.97,-7.17,31.71,0.74,8.73,1.96
393216,-1.66,-5.59,31.49,0.70,8.73,1.90
393251,-4.37,-5.41,29.95,0.72,8.73,1.81
393286,-6.01,-4.43,27.83,0.69,8.73,1.80
393321,-7.09,-4.03,25.08,0.75,8.73,1.78
393357,-7.71,-3.60,21.55,0.73,8.73,1.76
393391,-5.53,-2.60,18.24,0.80,8.73,1.81
393426,-3.96,-2.65,15.25,0.82,8.73,1.88
393461,-0.31,-3.83,13.32,0.82,8.73,1.95
393496,2.20,-5.12,12.41,0.70,8.73,2.07
393531,4.77,-5.69,12.32,0.55,8.73,2.05
393566,7.67,-4.01,13.55,0.49,8.73,1.95
393601,10.14,-4.13,15.74,0.53,8.73,1.80
393636,11.76,-3.95,18.62,0.58,8.73,1.69
393671,12.71,-3.58,21.79,0.71,8.73,1.64
393706,12.18,-5.01,24.51,0.80,8.73,1.63
393741,11.42,-5.64,27.58,0.82,8.73,1.62
393775,8.36,-5.53,28.99,0.79,8.73,1.55
393810,5.91,-4.14,31.03,0.76,8.73,1.34
393846,2.55,-6.48,32.01,0.73,8.73,1.48
393880,0.01,-3.93,34.20,0.78,8.73,1.52
393915,-1.83,-4.22,30.21,0.68,8.73,1.58
393950,-5.42,-8.03,28.81,0.39,8.73,1.73
393985,-4.77,-1.94,25.42,0.08,8.73,1.64
394020,-6.23,-1.16,22.75,-0.02,8.73,1.40
394055,-6.92,2.69,20.51,-0.02,8.73,1.12
394090,-6.51,3.52,18.28,0.31,8.73,1.07
394130,-2.41,0.26,15.24,0.63,8.73,1.21
394165,0.96,-2.35,15.07,0.75,8.73,1.43
394200,5.03,-4.52,13.57,0.68,8.73,1.54
394235,6.90,-4.00,12.72,0.57,8.73,1.62
394270,9.56,-5.25,14.99,0.46,8.73,1.63
394305,11.81,-6.45,18.26,0.31,8.73,1.58
394340,13.47,-6.48,20.90,0.09,8.73,1.39
394376,12.72,-5.75,23.61,0.03,8.73,1.14
394410,11.90,-4.11,27.18,0.05,8.73,0.81
394445,8.89,-2.67,29.50,0.21,8.73,0.60
394480,7.30,-3.31,32.55,0.56,8.73,0.77
394515,4.02,-3.95,34.02,0.77,8.73,1.14
394550,0.42,-5.23,33.08,0.77,8.73,1.50
394585,-1.94,-4.56,30.54,0.65,8.73,1.61
394620,-4.28,-4.91,28.55,0.41,8.73,1.65
394655,-5.35,-2.25,26.24,0.28,8.73,1.55
394690,-6.73,-1.18,24.17,0.31,8.73,1.37
394726,-6.42,0.15,21.39,0.38,8.73,1.23
394760,-5.57,1.86,18.04,0.50,8.73,1.11
394795,-3.57,1.61,15.40,0.66,8.73,1.09
394830,-1.04,0.11,13.91,0.84,8.73,1.22
394865,3.11,-1.54,13.39,0.87,8.73,1.40
394900,7.01,-4.15,13.96,0.86,8.73,1.54
394935,9.42,-3.72,14.87,0.81,8.73,1.62
394970,10.81,-3.49,17.89,0.76,8.73,1.66
395005,11.25,-3.27,21.04,0.78,8.73,1.66
395040,11.67,-3.25,23.70,0.88,8.73,1.68
395076,11.26,-4.72,27.24,1.02,8.73,1.81
395111,9.79,-5.75,30.09,1.06,8.73,1.97
395145,7.95,-6.62,32.81,1.05,8.73,2.14
395179,4.35,-7.81,33.50,0.95,8.73,2.15
395214,0.87,-7.14,33.54,0.82,8.73,2.10
395248,-1.57,-5.20,32.31,0.89,8.73,1.92
395283,-4.65,-5.11,30.70,1.00,8.73,1.82
395318,-6.63,-3.79,28.36,1.12,8.73,1.83
395353,-6.78,-5.53,24.13,1.13,8.73,1.90
395389,-6.63,-4.96,20.92,1.02,8.73,1.96
395423,-5.34,-3.74,17.79,0.94,8.73,1.98
395458,-4.19,-4.06,15.07,0.92,8.73,2.06
395493,-1.63,-5.69,13.93,0.82,8.73,2.16
395528,1.50,-6.39,13.40,0.67,8.73,2.18
395563,5.55,-3.49,13.38,0.56,8.73,2.02
395598,8.20,-2.67,14.80,0.55,8.73,1.89
395633,9.76,-4.42,17.11,0.57,8.73,1.74
395668,11.66,-4.84,20.71,0.48,8.73,1.66
395703,12.50,-5.38,23.88,0.43,8.73,1.55
395738,12.11,-6.04,27.69,0.37,8.73,1.36
395773,9.82,-5.24,30.38,0.37,8.73,1.10
395808,8.33,-3.44,32.79,0.56,8.73,0.99
395843,4.97,-3.75,33.96,0.79,8.73,1.11
395878,1.13,-5.65,34.00,0.85,8.73,1.37
395913,-1.72,-4.53,32.39,0.76,8.73,1.54
395948,-4.71,-5.07,30.95,0.62,8.73,1.65
395983,-5.57,-3.06,28.17,0.46,8.73,1.64
396018,-7.82,-0.24,27.09,0.49,8.73,1.49
396053,-4.58,-0.27,21.75,0.57,8.73,1.42
396088,-4.18,-0.11,17.79,0.75,8.73,1.43
396123,-6.44,0.31,16.24,0.96,8.73,1.55
396163,-0.80,-3.07,14.87,0.99,8.73,1.71
396198,1.90,-2.83,14.00,0.96,8.73,1.73
396233,5.43,-3.00,14.42,0.94,8.73,1.76
396268,8.97,-3.98,15.93,0.96,8.73,1.75
396303,11.61,-5.04,18.89,0.91,8.73,1.78
396338,13.12,-4.29,22.39,0.82,8.73,1.80
396373,12.77,-4.16,24.67,0.84,8.73,1.81
396408,11.61,-4.81,27.59,0.91,8.73,1.88
396443,10.10,-5.13,29.67,0.92,8.73,2.04
396478,7.65,-6.30,31.46,0.88,8.73,2.24
396513,4.63,-7.56,31.85,0.77,8.73,2.30
396548,1.02,-7.07,33.47,0.59,8.73,2.25
396583,-2.29,-5.32,31.93,0.55,8.73,2.10
396618,-4.74,-3.23,31.30,0.80,8.73,1.86
396653,-6.85,-3.41,28.20,1.08,8.73,1.79
396688,-7.20,-4.94,23.88,1.31,8.73,1.88
396723,-7.85,-5.36,20.80,1.41,8.73,2.07
396758,-6.55,-6.16,18.29,1.33,8.73,2.20
396793,-6.42,-5.06,15.35,1.11,8.73,2.13
396828,-2.19,-4.00,15.79,0.96,8.73,1.92
396863,1.90,-1.60,14.43,0.94,8.73,1.75
396898,7.16,-0.56,15.09,1.06,8.73,1.56
396933,10.40,-1.72,16.32,1.19,8.73,1.53
396968,11.83,-2.30,18.64,1.29,8.73,1.57
397003,12.33,-3.47,21.80,1.33,8.73,1.69
397038,12.88,-5.15,23.62,1.29,8.73,1.76
397073,11.63,-6.18,26.63,1.20,8.73,1.80
397108,9.83,-6.49,28.92,1.05,8.73,1.70
397143,7.34,-6.34,31.00,0.98,8.73,1.52
397178,4.63,-4.93,32.90,0.99,8.73,1.28
397213,1.63,-4.22,33.99,1.14,8.73,1.22
397248,-1.45,-5.90,33.12,1.27,8.73,1.32
397283,-4.45,-6.75,31.45,1.21,8.73,1.53
397318,-6.11,-6.03,29.31,1.06,8.73,1.68
397353,-6.65,-4.27,26.29,0.92,8.73,1.71
397389,-6.80,-2.52,23.21,0.79,8.73,1.65
397423,-4.38,-1.01,20.05,0.81,8.73,1.60
397458,-2.98,-1.65,16.36,0.87,8.73,1.59
397493,-1.54,-2.13,14.80,0.92,8.73,1.64
397528,2.19,-2.18,14.25,0.92,8.73,1.67
397563,6.46,-3.13,15.59,0.91,8.73,1.68
397598,9.61,-3.76,15.74,0.90,8.73,1.71
397633,11.22,-4.87,18.47,0.83,8.73,1.74
397668,12.15,-4.81,21.22,0.75,8.73,1.72
397703,11.93,-7.02,22.84,0.74,8.73,1.64
397738,12.01,-5.41,27.10,0.72,8.73,1.55
397773,9.96,-5.56,29.83,0.74,8.73,1.47
397807,8.09,-4.46,32.22,0.81,8.73,1.47
397843,4.90,-4.72,33.32,0.91,8.73,1.51
397877,1.51,-6.03,33.44,0.94,8.73,1.61
397912,-1.30,-5.27,32.87,0.94,8.73,1.65
397947,-4.13,-4.75,31.27,0.98,8.73,1.65
397981,-5.83,-4.20,29.38,0.99,8.73,1.68
398016,-6.95,-3.91,25.96,1.05,8.73,1.72
398051,-7.37,-3.58,22.48,1.08,8.73,1.79
398086,-6.21,-3.47,19.17,1.10,8.73,1.91
398121,-4.12,-4.32,16.03,1.09,8.73,1.96
398156,-0.40,-3.46,15.25,1.03,8.73,1.96
398196,4.38,-1.95,15.19,1.00,8.73,1.86
398231,7.76,-1.41,15.30,1.08,8.73,1.74
398266,10.02,-2.94,16.28,1.17,8.73,1.66
398301,10.77,-5.59,17.21,1.28,8.73,1.71
398336,13.32,0.34,23.98,1.30,8.73,1.84
398372,13.21,-6.94,25.63,1.36,8.73,1.96
398406,11.65,-6.09,26.30,1.25,8.73,2.12
398441,9.94,-6.15,29.40,1.10,8.73,2.18
398476,8.35,-7.76,33.33,1.02,8.73,2.22
398511,4.25,-7.23,34.22,0.89,8.73,2.16
398546,1.09,-6.43,34.16,0.78,8.73,2.07
398581,-2.37,-6.14,33.08,0.77,8.73,1.96
398616,-4.69,-5.75,30.99,0.73,8.73,1.90
398651,-5.50,-4.57,27.91,0.75,8.73,1.85
398686,-6.68,-3.89,24.78,0.77,8.73,1.81
398721,-5.99,-2.51,21.95,0.84,8.73,1.85
398756,-4.68,-3.34,18.83,0.90,8.73,1.94
398791,-2.68,-5.26,16.13,0.94,8.73,2.07
398825,1.63,-5.93,14.22,0.86,8.73,2.22
398860,4.15,-7.70,14.79,0.69,8.73,2.20
398896,7.72,-3.13,15.72,0.61,8.73,2.07
398930,9.86,-3.51,16.37,0.69,8.73,1.89
398966,11.36,-3.95,19.69,0.88,8.73,1.77
399000,12.53,-2.79,22.90,1.01,8.73,1.77
399035,13.02,-4.59,25.68,1.14,8.73,1.85
399070,10.90,-5.57,28.76,1.16,8.73,1.98
399105,8.98,-6.66,31.34,1.10,8.73,2.03
399140,6.85,-7.21,32.58,1.00,8.73,2.01
399175,2.42,-7.70,33.32,0.98,8.73,1.99
399210,-0.16,-5.77,34.22,1.00,8.73,1.85
399245,-2.49,-4.56,31.73,1.14,8.73,1.71
399280,-4.89,-3.66,28.93,1.33,8.73,1.69
399315,-7.24,-5.05,26.27,1.49,8.73,1.83
399350,-6.93,-6.57,22.75,1.47,8.73,1.99
399385,-5.28,-6.19,19.71,1.31,8.73,2.12
399420,-3.94,-5.44,16.96,1.19,8.73,2.16
399455,-1.85,-5.90,14.67,1.06,8.73,2.20
399490,0.16,-5.28,13.59,0.91,8.73,2.22
399525,3.75,-4.85,14.63,0.80,8.73,2.23
399560,6.16,-3.37,14.52,0.77,8.73,2.11
399595,7.92,-2.20,16.61,0.84,8.73,1.99
399630,10.59,-1.50,20.43,0.97,8.73,1.96
399665,12.42,-2.03,23.55,1.24,8.73,1.98
399700,13.16,-4.20,27.25,1.30,8.73,2.16
399735,11.04,-6.89,30.47,1.22,8.73,2.31
399770,8.08,-7.70,31.67,1.02,8.73,2.29
399805,5.15,-7.48,32.16,0.81,8.73,2.15
399841,2.94,-6.17,33.27,0.70,8.73,2.05
399875,0.10,-5.17,33.12,0.65,8.73,1.93
399910,-2.74,-4.77,30.72,0.67,8.73,1.83
399945,-6.12,-4.77,29.87,0.70,8.73,1.75
399980,-6.92,-3.52,27.26,0.73,8.73,1.72
400015,-5.90,-2.13,22.70,0.87,8.73,1.72
400049,-5.60,-3.36,19.70,0.98,8.73,1.78
400084,-3.94,-4.50,16.64,0.96,8.73,1.83
400119,-1.41,-2.52,15.18,0.89,8.73,1.75
400154,0.99,-1.40,14.55,0.90,8.73,1.66
400189,3.60,-0.54,15.01,0.98,8.73,1.50
400229,6.73,-0.38,15.91,1.11,8.73,1.50
400264,9.49,-2.08,18.17,1.23,8.73,1.54
400299,11.82,-4.94,20.53,1.26,8.73,1.60
400335,12.66,-5.60,23.72,1.18,8.73,1.64
400370,13.28,-6.16,26.94,1.10,8.73,1.62
400404,11.64,-6.97,29.73,0.95,8.73,1.54
400439,8.06,-5.02,31.05,0.91,8.73,1.35
400473,4.74,-5.26,31.16,0.95,8.73,1.20
400508,2.38,-4.32,31.71,1.10,8.73,1.18
400543,-0.37,-4.95,31.83,1.18,8.73,1.32
400578,-3.19,-5.14,29.97,1.16,8.73,1.50
400612,-6.09,-4.93,28.95,1.08,8.73,1.61
400647,-6.32,-4.07,25.78,1.00,8.73,1.65
400681,-7.17,-3.66,22.82,0.91,8.73,1.64
400716,-6.36,-2.90,20.20,0.88,8.73,1.60
400751,-4.62,-2.05,16.83,0.92,8.73,1.64
400786,-2.42,-2.55,15.20,0.95,8.73,1.64
400822,0.83,-2.65,14.41,0.94,8.73,1.73
400856,2.80,-2.88,13.67,0.93,8.73,1.74
400891,6.96,-2.20,15.12,0.92,8.73,1.78
400926,9.97,-2.68,17.10,1.00,8.73,1.74
400961,12.25,-2.99,19.72,1.12,8.73,1.72
400996,13.15,-3.15,22.29,1.24,8.73,1.79
401031,12.31,-4.88,24.79,1.26,8.73,1.89
401066,11.21,-5.77,27.67,1.15,8.73,1.96
401100,9.04,-6.24,29.55,1.01,8.73,1.93
401135,6.84,-6.25,31.36,0.92,8.73,1.81
401170,3.97,-6.25,32.28,0.92,8.73,1.76
401205,0.41,-5.89,32.45,0.98,8.73,1.71
401240,-2.10,-5.36,30.65,1.01,8.73,1.72
401275,-4.90,-6.02,29.84,1.06,8.73,1.74
401310,-6.14,-4.75,27.42,1.12,8.73,1.78
401345,-6.93,-5.49,24.12,1.20,8.73,1.86
401381,-6.74,-4.93,20.96,1.20,8.73,1.96
401415,-6.43,-4.83,17.20,1.16,8.73,2.09
401450,-3.53,-5.26,15.01,1.03,8.73,2.10
401485,-0.24,-4.02,13.70,0.88,8.73,2.02
401520,2.84,-2.22,12.87,0.83,8.73,1.89
401556,6.63,-1.54,14.30,0.85,8.73,1.77
401590,8.83,-1.73,16.07,0.96,8.73,1.69
401625,11.14,-2.13,18.39,1.08,8.73,1.67
401660,12.01,-3.23,20.33,1.14,8.73,1.70
401695,12.90,-3.77,23.31,1.15,8.73,1.73
401730,12.02,-5.72,25.78,1.09,8.73,1.76
401765,10.46,-5.79,27.51,0.90,8.73,1.66
401800,8.05,-6.61,30.58,0.93,8.73,1.72
401835,5.47,-5.11,33.16,0.92,8.73,1.68
401870,2.45,-5.80,32.98,0.86,8.73,1.71
401905,-0.79,-5.04,31.31,0.82,8.73,1.80
401940,-4.04,-5.92,29.73,0.82,8.73,1.81
401975,-6.36,-4.46,27.44,0.79,8.73,1.80
402010,-6.73,-3.08,24.44,0.85,8.73,1.77
402045,-7.47,-4.05,21.21,0.93,8.73,1.79
402079,-6.43,-3.43,18.65,1.05,8.73,1.93
402114,-4.03,-4.94,15.46,1.02,8.73,2.01
402148,-2.08,-5.08,12.92,0.92,8.73,2.06
402182,1.85,-5.95,12.75,0.76,8.73,2.11
402217,4.30,-4.69,13.00,0.59,8.73,2.10
402257,6.86,-5.09,12.52,0.44,8.73,2.03
402292,9.83,-6.53,15.56,0.28,8.73,1.96
402328,11.78,-6.77,19.13,0.07,8.73,1.82
402362,13.28,-4.21,23.01,-0.05,8.73,1.58
402397,12.17,-4.15,26.06,0.07,8.73,1.39
402432,11.94,-3.33,29.06,0.24,8.73,1.31
402467,9.18,-4.24,31.64,0.44,8.73,1.39
402502,5.58,-4.17,33.22,0.57,8.73,1.56
402537,2.20,-5.44,33.61,0.54,8.73,1.74
402572,-1.11,-4.76,33.12,0.42,8.73,1.81
402607,-2.88,-4.75,30.67,0.32,8.73,1.74
402642,-4.94,-1.91,29.24,0.24,8.73,1.62
402677,-5.51,-0.44,25.62,0.30,8.73,1.45
402712,-6.08,0.21,22.01,0.39,8.73,1.30
402747,-5.15,1.06,18.97,0.53,8.73,1.19
402782,-4.53,1.74,17.12,0.69,8.73,1.14
402817,-2.10,0.06,14.66,0.82,8.73,1.11
402852,1.44,0.92,12.86,0.96,8.73,1.10
402887,4.07,1.14,13.45,1.11,8.73,1.18
402922,8.05,0.43,14.82,1.30,8.73,1.22
402957,11.29,-1.36,17.12,1.47,8.73,1.30
402992,12.59,-1.42,19.16,1.47,8.73,1.47
403027,12.49,-4.64,21.73,1.45,8.73,1.63
403062,11.67,-6.79,24.15,1.24,8.73,1.67
403097,9.90,-5.91,27.23,1.08,8.73,1.62
403132,8.06,-4.99,29.93,1.00,8.73,1.50
403167,6.39,-6.66,32.77,1.01,8.73,1.41
403202,3.76,-6.18,32.91,1.11,8.73,1.45
403237,1.28,-6.55,32.29,1.18,8.73,1.53
403273,-2.19,-5.92,30.06,1.15,8.73,1.65
403307,-4.59,-5.45,28.14,1.12,8.73,1.72
403343,-5.36,-5.05,25.05,1.08,8.73,1.78
403377,-6.73,-4.85,21.26,1.16,8.73,1.85
403412,-5.81,-4.37,18.79,1.20,8.73,1.93
403447,-5.92,-4.98,15.84,1.15,8.73,2.05
403482,-5.71,-6.10,14.43,0.96,8.73,1.99
403517,-0.34,-4.40,13.06,0.83,8.73,1.95
403552,0.24,-2.57,12.07,0.75,8.73,1.87
403587,3.70,-4.65,12.57,0.72,8.73,1.78
403623,7.63,-3.85,14.34,0.65,8.73,1.79
403657,10.40,-5.20,16.95,0.60,8.73,1.76
403692,12.23,-5.14,20.16,0.52,8.73,1.69
403727,12.53,-5.39,23.44,0.48,8.73,1.56
403762,11.62,-4.77,26.32,0.53,8.73,1.47
403797,9.92,-5.31,28.93,0.60,8.73,1.42
403832,7.93,-4.67,31.96,0.68,8.73,1.39
403867,4.85,-4.16,32.74,0.75,8.73,1.40
403902,1.94,-4.95,32.69,0.79,8.73,1.51
403937,-0.79,-4.70,31.03,0.74,8.73,1.59
403972,-3.90,-4.79,29.31,0.66,8.73,1.61
404007,-6.15,-3.56,27.07,0.51,8.73,1.61
404042,-5.87,-3.42,23.22,0.51,8.73,1.53
404077,-8.98,-0.05,22.53,0.59,8.73,1.43
404112,-5.20,0.06,18.83,0.67,8.73,1.37
404147,-5.60,-0.17,15.21,0.80,8.73,1.33
404182,-3.74,1.23,15.31,0.94,8.73,1.36
404217,2.30,-2.35,13.52,0.98,8.73,1.36
404251,4.93,-0.83,13.14,1.03,8.73,1.36
404291,7.31,-0.59,14.36,1.10,8.73,1.45
404326,10.46,-3.20,16.43,1.11,8.73,1.53
404362,11.74,-4.93,17.72,1.03,8.73,1.58
404396,12.53,-4.87,21.11,0.96,8.73,1.62
404431,11.84,-6.49,24.11,0.89,8.73,1.62
404466,11.34,-5.23,27.25,0.81,8.73,1.56
404501,9.28,-5.41,29.54,0.76,8.73,1.48
404536,6.60,-6.10,30.88,0.79,8.73,1.55
404571,3.72,-5.74,31.53,0.79,8.73,1.63
404607,0.58,-6.05,30.36,0.78,8.73,1.72
404641,-2.71,-4.90,28.97,0.70,8.73,1.73
404676,-5.30,-5.16,28.21,0.65,8.73,1.72
404711,-5.61,-4.31,25.80,0.69,8.73,1.70
404747,-6.15,-3.89,22.58,0.81,8.73,1.68
404781,-6.48,-4.05,19.69,0.83,8.73,1.68
404816,-6.12,-3.17,17.17,0.88,8.73,1.76
404851,-4.19,-2.86,14.25,0.88,8.73,1.78
404886,-0.28,-2.70,13.30,0.86,8.73,1.73
404921,2.66,-2.39,12.44,0.85,8.73,1.66
404956,5.32,-1.13,12.34,0.90,8.73,1.55
404991,8.02,-2.04,14.16,0.99,8.73,1.50
405026,10.95,-1.40,16.86,1.10,8.73,1.52
405061,12.26,-3.16,19.41,1.14,8.73,1.59
405096,12.28,-4.53,21.85,1.15,8.73,1.66
405131,12.14,-6.19,24.94,1.11,8.73,1.71
405166,11.09,-6.80,27.74,1.01,8.73,1.69
405201,8.36,-6.16,30.31,0.97,8.73,1.63
405236,5.51,-6.00,31.14,0.95,8.73,1.55
405271,2.37,-5.07,32.17,0.94,8.73,1.51
405306,-0.82,-5.96,31.53,0.94,8.73,1.57
405342,-3.81,-4.98,30.40,0.94,8.73,1.61
405377,-5.84,-5.31,28.15,0.91,8.73,1.64
405411,-6.39,-4.48,25.02,0.82,8.73,1.67
405446,-6.64,-3.34,22.22,0.75,8.73,1.64
405481,-5.55,-2.23,18.90,0.67,8.73,1.57
405516,-2.56,-0.57,15.59,0.67,8.73,1.49
405551,-0.30,-0.54,13.54,0.72,8.73,1.39
405586,1.80,-0.34,13.20,0.81,8.73,1.45
405621,3.91,-2.54,12.37,0.81,8.73,1.52
405656,5.44,-2.79,12.92,0.80,8.73,1.60
405691,8.96,-4.69,15.17,0.75,8.73,1.63
405726,10.51,-5.93,16.94,0.59,8.73,1.63
405761,12.07,-4.36,19.88,0.50,8.73,1.52
405796,12.09,-5.42,23.28,0.52,8.73,1.42
405831,11.89,-5.21,26.93,0.53,8.73,1.26
405867,10.10,-4.70,28.89,0.59,8.73,1.09
405901,7.79,-4.11,30.69,0.73,8.73,0.98
405936,4.68,-4.01,31.78,0.89,8.73,0.96
405971,1.45,-5.46,31.85,1.00,8.73,1.15
406006,-1.54,-5.24,31.93,0.99,8.73,1.36
406041,-4.07,-4.44,29.89,0.94,8.73,1.47
406076,-5.68,-3.56,27.31,0.82,8.73,1.52
406111,-7.03,-1.66,24.36,0.81,8.73,1.49
406146,-8.94,-2.18,21.15,0.81,8.73,1.45
406181,-6.11,-0.65,18.31,0.86,8.73,1.43
406216,-4.38,-1.13,14.83,0.91,8.73,1.46
406251,-0.76,-1.67,13.00,0.95,8.73,1.50
406286,2.55,-1.53,12.01,0.98,8.73,1.55
406326,3.44,-1.53,11.25,1.01,8.73,1.59
406361,7.30,-1.24,13.56,1.05,8.73,1.66
406396,11.08,-2.03,15.49,1.19,8.73,1.68
406431,11.72,-2.68,17.74,1.25,8.73,1.78
406466,11.26,-3.13,21.25,1.24,8.73,1.88
406501,10.81,-5.44,24.04,1.24,8.73,2.04
406536,10.52,-6.31,26.33,1.18,8.68,2.18
406571,7.73,-8.10,28.46,1.07,8.73,2.27
406606,5.39,-7.63,30.19,0.92,8.73,2.34
406641,2.68,-7.52,31.39,0.72,8.73,2.33
406676,-0.63,-5.60,30.87,0.61,8.73,2.22
406711,-3.27,-4.43,29.64,0.62,8.73,2.02
406746,-6.14,-3.76,28.66,0.68,8.73,1.86
406781,-6.11,-2.91,24.84,0.80,8.73,1.76
406816,-6.66,-4.29,20.68,0.85,8.73,1.71
406851,-6.23,-3.00,17.68,0.75,8.73,1.62
406886,-5.51,-1.91,14.95,0.70,8.73,1.52
406921,-1.89,-0.40,13.58,0.67,8.73,1.31
406956,0.17,1.11,12.70,0.76,8.73,1.18
406991,3.51,-0.06,12.78,0.86,8.73,1.12
407026,4.75,-0.13,12.38,0.96,8.73,1.20
407061,8.39,-3.68,13.64,0.98,8.73,1.28
407096,9.94,-5.19,15.86,0.88,8.73,1.38
407131,12.38,-6.44,18.44,0.69,8.73,1.39
407166,12.93,-5.88,21.93,0.56,8.73,1.28
407201,12.31,-6.61,24.60,0.53,8.73,1.11
407236,11.39,-3.39,27.68,0.60,8.73,1.02
407271,8.36,-5.12,29.90,0.85,8.73,1.09
407306,5.36,-4.63,31.14,1.00,8.73,1.30
407341,1.78,-6.19,31.64,1.03,8.73,1.57
407377,-0.77,-5.46,30.38,0.99,8.73,1.74
407411,-3.49,-4.83,27.73,0.94,8.73,1.80
407446,-6.78,-5.06,26.50,0.95,8.73,1.79
407481,-5.36,-4.19,22.29,0.97,8.68,1.82
407517,-6.51,-2.68,19.35,1.15,8.58,1.90
407551,-7.47,-4.74,16.92,1.30,8.53,2.12
407586,-4.90,-6.39,14.32,1.26,8.53,2.37
407621,-4.22,-7.76,11.82,1.13,8.53,2.59
407655,-2.96,-6.96,10.86,0.86,8.62,2.60
407690,1.24,-6.14,11.90,0.65,8.73,2.45
407725,4.84,-3.74,12.04,0.54,8.73,2.22
407760,8.24,-2.77,13.40,0.56,8.73,2.00
407795,9.37,-3.65,16.33,0.61,8.73,1.88
407830,11.17,-4.34,19.40,0.60,8.73,1.81
407865,11.98,-5.04,22.84,0.53,8.73,1.76
407900,11.57,-5.95,25.82,0.40,8.73,1.61
407935,10.67,-5.29,28.74,0.38,8.73,1.45
407970,7.56,-4.30,30.02,0.46,8.73,1.43
408005,4.02,-4.53,29.45,0.49,8.73,1.56
408040,1.23,-5.68,30.45,0.40,8.65,1.78
408075,-1.39,-4.98,29.66,0.20,8.61,1.83
408110,-3.72,-3.69,27.86,0.08,8.62,1.73
408145,-5.57,-0.79,26.43,0.11,8.59,1.52
408180,-5.04,-0.34,22.42,0.30,8.60,1.36
408215,-8.62,0.20,20.81,0.47,8.64,1.26
408250,-6.21,0.56,19.07,0.64,8.73,1.27
408284,-1.18,-1.76,16.10,0.79,8.68,1.32
408319,-4.68,-0.27,11.02,0.79,8.65,1.27
408359,0.30,-0.08,12.40,0.88,8.72,1.22
408394,3.34,-0.33,11.30,0.94,8.68,1.24
408429,5.74,-0.40,12.18,1.03,8.65,1.29
408464,8.43,-2.04,13.18,1.06,8.64,1.39
408498,8.84,-2.92,14.01,1.09,8.63,1.48
408534,11.46,-3.33,16.93,1.06,8.61,1.55
408568,12.28,-4.51,19.90,1.08,8.58,1.60
408603,12.74,-5.00,23.80,1.11,8.45,1.65
408638,11.25,-6.20,24.86,1.10,8.36,1.77
408673,8.71,-5.91,27.19,1.05,8.41,1.81
408708,5.86,-6.08,27.47,0.96,8.37,1.94
408742,2.68,-6.54,29.57,0.79,8.33,2.00
408777,-0.18,-6.77,30.38,0.66,8.39,2.01
408812,-1.65,-6.08,27.98,0.54,8.50,2.00
408847,-4.65,-5.49,27.57,0.47,8.52,1.88
408882,-7.78,-5.04,25.77,0.43,8.56,1.80
408917,-6.43,-2.81,21.95,0.41,8.56,1.67
408952,-6.62,-2.26,19.04,0.43,8.54,1.59
408987,-7.63,-2.01,16.54,0.49,8.61,1.55
409022,-5.08,-2.29,13.91,0.61,8.68,1.61
409057,-3.06,-1.69,12.12,0.65,8.66,1.63
409092,-0.49,-3.80,10.12,0.63,8.60,1.76
409127,1.83,-4.67,10.13,0.56,8.57,1.85
409162,5.56,-4.71,11.77,0.47,8.54,1.84
409197,8.84,-2.19,12.34,0.48,8.55,1.70
409232,11.12,-0.62,15.06,0.71,8.60,1.58
409267,12.42,-1.54,18.42,1.01,8.49,1.56
409302,12.58,-3.90,20.61,1.24,8.36,1.63
409337,11.51,-4.18,22.39,1.29,8.32,1.76
409373,10.82,-5.63,24.87,1.24,8.36,1.89
409407,8.36,-5.81,27.63,1.11,8.44,1.89
409442,4.57,-6.43,28.67,1.03,8.46,1.85
409477,2.22,-5.64,29.21,1.04,8.46,1.79
409512,-0.55,-6.21,29.76,1.11,8.41,1.71
409547,-2.51,-4.55,27.66,1.23,8.41,1.64
