timestamp,accelX,accelY,accelZ,gyroX,gyroY,gyroZ
5681,8.84,-3.20,3.73,0.26,-0.00,-0.00
5716,8.82,-2.96,3.73,0.26,-0.00,-0.00
5751,8.83,-3.06,3.75,0.26,-0.00,0.01
5786,8.84,-3.06,3.77,0.26,-0.00,0.01
5821,8.85,-3.05,3.76,0.26,-0.00,0.01
5856,8.85,-3.08,3.73,0.26,-0.00,0.01
5891,8.83,-3.13,3.74,0.26,-0.00,0.01
5926,8.88,-3.10,3.76,0.26,-0.00,0.00
5961,8.82,-3.13,3.73,0.26,-0.00,0.00
5996,8.83,-3.07,3.74,0.26,-0.00,-0.00
6031,8.85,-3.06,3.76,0.26,-0.00,-0.00
6066,8.82,-3.02,3.78,0.26,-0.00,-0.00
6106,8.82,-3.05,3.74,0.26,-0.00,0.00
6140,8.86,-3.05,3.78,0.26,-0.00,0.01
6175,8.85,-3.05,3.77,0.26,-0.00,0.01
6211,8.84,-3.05,3.74,0.26,-0.00,0.01
6245,8.85,-3.12,3.76,0.26,-0.00,0.01
6280,8.83,-3.09,3.75,0.26,-0.00,0.01
6315,8.84,-3.12,3.74,0.26,-0.00,0.00
6350,8.84,-3.12,3.72,0.26,-0.00,0.00
6385,8.85,-3.08,3.77,0.26,-0.00,-0.00
6420,8.84,-3.06,3.71,0.26,-0.00,-0.00
6455,8.83,-3.07,3.76,0.26,-0.00,-0.00
6490,8.87,-3.02,3.75,0.26,-0.00,0.00
6525,8.83,-3.02,3.73,0.26,-0.00,0.01
6560,8.81,-3.05,3.74,0.26,-0.00,0.01
6595,8.83,-3.08,3.74,0.26,-0.00,0.01
6629,8.85,-3.10,3.78,0.26,-0.00,0.01
6664,8.82,-3.11,3.76,0.26,-0.00,0.01
6699,8.82,-3.12,3.72,0.26,-0.00,0.00
6734,8.83,-3.10,3.74,0.26,-0.00,-0.00
6769,8.85,-3.07,3.77,0.26,-0.00,-0.00
6804,8.81,-3.05,3.75,0.26,-0.00,0.00
6838,8.81,-3.07,3.75,0.26,-0.00,0.00
6873,8.84,-3.03,3.74,0.26,-0.00,0.00
6908,8.82,-3.06,3.74,0.26,-0.00,0.01
6942,8.83,-3.08,3.75,0.26,-0.00,0.01
6977,8.84,-3.09,3.74,0.26,-0.00,0.01
7012,8.83,-3.10,3.77,0.26,-0.00,0.01
7046,8.82,-3.09,3.75,0.26,-0.00,0.00
7081,8.85,-3.08,3.75,0.26,-0.00,0.00
7115,8.84,-3.06,3.78,0.26,-0.00,0.00
7149,8.83,-3.08,3.74,0.26,-0.00,0.00
7184,8.83,-3.05,3.74,0.26,-0.00,0.00
7219,8.85,-3.06,3.75,0.26,-0.00,0.00
7254,8.84,-3.08,3.76,0.26,-0.00,0.01
7289,8.83,-3.08,3.76,0.26,-0.00,0.01
7324,8.83,-3.09,3.77,0.26,-0.00,0.01
7359,8.81,-3.09,3.77,0.26,-0.00,0.01
7394,8.84,-3.08,3.75,0.26,-0.00,0.00
7429,8.82,-3.11,3.74,0.26,-0.00,0.00
7464,8.85,-3.07,3.75,0.26,-0.00,0.00
7499,8.82,-3.09,3.76,0.26,-0.00,0.00
7534,8.82,-3.06,3.73,0.26,-0.00,0.00
7569,8.83,-3.06,3.74,0.26,-0.00,0.00
7604,8.84,-2.95,3.76,0.26,-0.00,0.01
7639,9.15,-0.76,4.36,0.39,-0.03,0.10
7674,8.87,-1.65,4.07,0.60,-0.09,0.24
7709,8.64,-3.20,3.52,0.68,-0.09,0.30
7744,8.39,-4.88,3.21,0.55,-0.03,0.24
7778,8.46,-4.38,3.28,0.39,0.03,0.14
7812,8.75,-4.03,3.84,0.27,0.06,0.05
7847,9.07,-1.76,4.57,0.32,0.01,0.07
7882,8.96,-3.01,4.21,0.50,-0.08,0.16
7917,8.48,-4.17,3.68,0.48,-0.08,0.13
7952,8.66,-4.24,3.54,0.37,-0.04,0.05
7987,8.54,-4.16,3.60,0.26,-0.00,-0.02
8022,8.78,-2.66,3.89,0.22,0.02,-0.06
8057,8.59,-3.21,3.87,0.25,0.03,-0.06
8092,8.95,-3.37,4.07,0.29,0.01,-0.09
8132,8.74,-4.58,3.94,0.24,-0.01,-0.17
8167,8.72,-1.96,4.12,0.20,-0.01,-0.24
8202,9.02,-2.82,4.20,0.35,-0.04,-0.22
8237,8.86,-3.22,3.90,0.40,-0.05,-0.27
8272,8.83,-3.67,3.89,0.42,-0.06,-0.32
8307,8.88,-3.68,3.83,0.41,-0.06,-0.39
8342,8.77,-3.60,3.69,0.32,-0.05,-0.48
8378,8.92,-2.47,3.84,0.24,-0.04,-0.52
8412,8.97,-1.49,3.83,0.23,-0.04,-0.48
8447,9.02,-1.60,3.71,0.24,-0.04,-0.41
8482,9.08,-0.49,3.80,0.28,-0.03,-0.30
8517,9.14,-0.58,3.89,0.39,-0.04,-0.15
8552,8.93,-1.56,3.58,0.44,-0.03,-0.07
8587,9.12,-2.22,3.56,0.40,-0.00,-0.05
8622,8.90,-2.63,3.36,0.31,0.04,-0.08
8657,8.99,-1.78,3.53,0.24,0.09,-0.10
8692,9.09,-0.74,3.74,0.27,0.12,-0.06
8727,9.00,-1.37,3.69,0.34,0.16,-0.00
8762,8.88,-1.83,3.56,0.35,0.20,-0.00
8797,8.89,-1.70,3.68,0.32,0.25,-0.03
8832,8.89,-1.24,3.88,0.34,0.29,-0.01
8867,8.87,-1.12,4.08,0.37,0.32,0.03
8902,8.61,-0.06,5.98,0.39,0.33,0.05
8937,10.02,-0.23,5.07,0.41,0.15,0.05
8972,8.73,-1.42,4.80,0.42,-0.02,0.04
9007,9.29,-4.60,4.74,0.13,-0.05,-0.13
9042,9.03,-0.79,5.36,0.02,-0.08,-0.23
9077,9.08,-0.34,4.61,0.21,-0.18,-0.13
9112,8.63,0.24,4.08,0.31,-0.17,-0.08
9147,8.79,-1.36,3.26,0.35,-0.12,-0.03
9182,8.40,-2.03,3.51,0.46,-0.01,0.03
9217,9.07,-1.82,3.53,0.36,0.06,-0.00
9252,8.49,-1.07,3.91,0.26,0.13,-0.03
9287,8.98,-0.65,4.03,0.24,0.15,0.01
9323,11.03,2.50,6.75,0.18,0.19,-0.01
9357,8.24,1.71,4.97,0.14,0.27,-0.00
9392,8.74,1.94,4.75,0.21,0.11,0.03
9427,6.42,5.63,3.60,0.02,0.14,-0.04
9462,13.35,1.23,7.30,0.18,-0.13,0.08
9497,7.98,-1.30,5.52,0.20,-0.10,0.04
9532,11.14,-3.90,7.02,0.19,-0.20,0.08
9567,8.95,1.19,5.94,0.20,-0.22,0.03
9602,9.75,-1.79,5.04,0.14,-0.28,0.03
9637,8.62,-0.42,4.11,0.05,-0.31,0.00
9672,9.15,-1.80,3.97,0.03,-0.39,0.06
9707,8.43,-2.26,3.51,0.04,-0.38,0.10
9742,9.36,-0.43,3.51,0.13,-0.33,0.19
9777,8.74,0.58,3.23,0.38,-0.23,0.34
9812,8.32,-0.66,2.63,0.60,-0.12,0.45
9848,8.69,-2.25,2.73,0.69,0.05,0.46
9882,8.46,-2.86,2.81,0.68,0.17,0.42
9917,8.43,-2.04,3.24,0.68,0.28,0.41
9952,9.01,-1.43,4.09,0.78,0.33,0.48
9987,8.32,-0.28,4.17,0.98,0.35,0.62
10022,8.78,0.60,5.20,1.34,0.32,0.90
10057,8.49,-0.00,5.85,1.73,0.26,1.21
10092,7.48,-0.79,5.94,2.00,0.19,1.50
10127,7.49,-0.84,6.77,2.29,0.12,1.81
10167,6.43,-3.26,7.01,2.47,0.09,2.13
10202,6.24,-4.09,6.79,2.49,0.01,2.27
10237,6.05,-7.26,6.60,2.20,0.11,2.13
10272,6.74,-7.53,7.00,1.77,0.11,1.77
10307,6.55,-6.99,7.07,1.37,0.08,1.35
10343,6.61,-6.11,7.38,1.05,0.02,1.03
10377,6.49,-4.48,7.61,0.84,-0.09,0.83
10413,6.75,-5.44,7.97,0.67,-0.27,0.64
10447,6.36,-5.67,7.56,0.46,-0.42,0.37
10482,6.66,-4.78,7.80,0.33,-0.62,0.22
10517,7.16,-4.91,7.97,0.22,-0.82,0.08
10551,7.22,-4.27,7.97,0.17,-1.04,0.00
10586,7.27,-4.52,7.51,0.21,-1.30,0.01
10621,8.13,-4.72,7.67,0.22,-1.50,-0.02
10656,7.62,-5.95,6.65,0.14,-1.69,-0.14
10691,8.90,-7.55,6.62,-0.16,-1.82,-0.37
10726,7.49,-6.10,5.62,-0.45,-1.93,-0.54
10761,10.13,-5.90,5.45,-0.67,-2.04,-0.60
10796,8.86,-4.32,4.70,-0.80,-2.10,-0.58
10831,9.88,-4.53,4.41,-0.88,-2.22,-0.53
10866,10.86,-4.36,3.39,-0.97,-2.32,-0.47
10901,10.58,-3.90,2.66,-1.03,-2.44,-0.40
10936,11.23,-2.70,2.25,-1.03,-2.57,-0.30
10971,9.79,-3.01,1.67,-1.00,-2.69,-0.25
11006,11.08,-3.82,-0.27,-1.08,-2.83,-0.10
11041,9.89,-1.42,-0.50,-1.04,-2.92,0.01
11076,9.65,-2.38,-1.51,-1.02,-3.05,0.14
11111,8.82,-2.57,-3.89,-1.11,-3.13,0.41
11146,7.38,-0.03,-3.76,-1.16,-3.17,0.72
11181,6.61,0.13,-4.42,-1.09,-3.21,0.93
11216,3.85,1.63,-6.31,-0.95,-3.23,1.21
11251,2.61,1.77,-6.06,-0.80,-3.12,1.38
11286,3.06,2.35,-7.05,-0.61,-3.10,1.50
11321,-0.09,2.55,-7.05,-0.41,-3.00,1.55
11357,-0.84,1.39,-7.87,-0.22,-2.88,1.77
11391,-2.93,2.87,-6.70,-0.03,-2.79,1.96
11426,-4.47,3.50,-7.74,0.19,-2.61,2.16
11461,-4.86,3.21,-6.32,0.46,-2.43,2.29
11496,-6.29,3.95,-6.49,0.69,-2.24,2.35
11531,-8.29,3.81,-5.98,0.93,-2.02,2.33
11566,-8.88,4.01,-5.69,1.09,-1.75,2.21
11601,-9.14,3.05,-5.33,1.19,-1.48,1.99
11636,-7.99,1.27,-6.07,1.17,-1.17,1.74
11671,-8.58,0.55,-5.77,1.04,-0.91,1.40
11706,-9.01,0.47,-5.63,0.97,-0.69,1.27
11741,-9.04,-0.23,-5.82,0.91,-0.51,1.19
11776,-8.74,-0.59,-5.71,0.77,-0.32,1.08
11811,-8.42,0.39,-6.08,0.64,-0.14,0.95
11846,-8.07,0.84,-5.86,0.51,0.01,0.79
11881,-8.59,1.11,-5.56,0.52,0.15,0.82
11916,-8.47,0.97,-5.92,0.51,0.32,0.76
11951,-8.43,1.53,-5.78,0.45,0.49,0.64
11986,-8.13,1.98,-5.86,0.52,0.61,0.73
12021,-8.21,0.77,-6.51,0.64,0.67,0.99
12056,-7.06,1.00,-6.03,0.81,0.72,1.40
12091,-6.77,1.15,-6.80,0.94,0.77,1.71
12126,-6.73,0.82,-7.13,1.03,0.81,2.00
12161,-7.06,-0.39,-6.34,1.01,0.91,2.11
12201,-6.31,0.81,-7.81,0.88,1.13,1.97
12236,-5.56,0.26,-6.99,0.84,1.21,2.06
12271,-8.32,-0.78,-8.24,0.78,1.42,2.13
12306,-5.73,-0.23,-7.44,0.65,1.61,2.16
12341,-5.26,-2.11,-8.37,0.51,1.75,2.38
12377,-4.09,-2.11,-8.14,0.29,1.99,2.46
12411,-1.16,-1.86,-8.09,0.13,2.23,2.30
12446,-0.79,-2.64,-7.51,-0.10,2.35,2.25
12481,0.31,-3.81,-8.00,-0.34,2.48,2.34
12516,2.75,-3.33,-7.52,-0.71,2.55,2.52
12551,3.06,-1.77,-7.14,-0.94,2.70,2.49
12586,4.52,-2.56,-5.59,-1.15,2.87,2.41
12621,4.60,-0.28,-4.99,-1.28,3.04,2.20
12656,7.08,0.53,-3.78,-1.27,3.26,1.92
12691,7.48,1.46,-1.62,-1.18,3.43,1.62
12726,8.22,1.38,-1.47,-1.04,3.59,1.37
12761,9.14,0.33,0.50,-0.91,3.73,1.19
12796,9.76,1.32,2.13,-0.87,3.81,1.01
12832,10.66,1.56,4.02,-0.70,3.91,0.86
12866,9.64,0.61,5.36,-0.55,3.96,0.78
12901,11.00,1.23,7.27,-0.42,4.00,0.66
12936,9.64,-0.27,8.26,-0.27,4.05,0.60
12971,9.68,-0.59,10.14,-0.23,4.06,0.48
13006,8.09,-1.59,11.37,-0.25,4.02,0.30
13041,6.84,-0.26,11.51,-0.26,3.93,0.02
13076,6.82,-0.19,13.57,-0.19,3.94,-0.14
13111,4.98,0.35,13.36,-0.05,3.88,-0.26
13146,3.65,0.00,12.49,0.08,3.83,-0.30
13181,2.78,1.37,15.37,0.22,3.81,-0.32
13216,1.58,-0.43,14.26,0.34,3.78,-0.35
13251,0.67,0.50,13.43,0.50,3.82,-0.35
13286,-0.80,1.21,14.39,0.69,3.90,-0.42
13322,-2.09,0.71,13.38,0.85,3.90,-0.43
13357,-3.28,0.10,12.93,0.95,3.89,-0.34
13391,-4.83,1.59,13.80,1.11,3.91,-0.27
13426,-6.22,0.14,11.90,1.32,3.93,-0.22
13461,-6.05,-1.01,9.03,1.40,3.83,-0.10
13496,-6.75,1.81,8.66,1.35,3.72,0.04
13531,-9.04,0.31,7.35,1.37,3.59,0.18
13566,-6.95,0.03,4.97,1.39,3.43,0.27
13601,-10.73,1.08,6.28,1.48,3.38,0.42
13636,-9.12,0.32,4.85,1.54,3.44,0.60
13671,-10.30,-0.02,3.72,1.55,3.54,0.76
13706,-8.65,-0.61,1.75,1.44,3.59,0.86
13741,-8.27,0.44,1.21,1.21,3.65,0.80
13776,-7.86,1.83,0.05,1.05,3.71,0.74
13811,-8.10,1.98,-2.11,0.92,3.80,0.61
13847,-6.25,2.84,-1.62,0.83,3.88,0.47
13881,-5.98,2.94,-2.89,0.85,3.95,0.45
13916,-2.60,3.14,-4.23,0.88,3.93,0.44
13951,-1.28,2.77,-4.40,0.87,3.85,0.39
13986,2.36,3.10,-4.96,0.92,3.78,0.24
14020,1.61,1.96,-5.12,0.90,3.64,0.22
14055,1.70,-0.07,-5.47,0.92,3.63,0.35
14090,2.54,1.34,-6.10,0.83,3.60,0.49
14124,3.14,0.56,-5.27,0.84,3.63,0.52
14159,4.14,-0.52,-4.73,0.74,3.61,0.64
14194,4.29,0.29,-4.59,0.72,3.69,0.70
14234,6.86,-0.25,-3.72,0.68,3.77,0.76
14269,5.99,0.26,-2.62,0.66,3.83,0.79
14304,7.76,-0.87,-1.66,0.65,3.91,0.84
14340,9.63,-0.49,-0.19,0.63,3.95,0.85
14374,9.87,-0.28,1.51,0.75,4.02,0.86
14409,10.46,-1.51,3.37,0.78,4.02,0.87
14444,9.79,-1.66,4.24,0.75,4.00,0.87
14479,11.12,-2.48,5.67,0.74,3.99,0.87
14514,9.95,-1.74,7.02,0.73,3.98,0.87
14549,8.89,-2.66,8.32,0.74,3.99,0.90
14584,9.04,-2.21,9.83,0.70,4.02,0.85
14619,6.81,-3.03,9.63,0.72,4.09,0.90
14654,7.24,-3.63,11.82,0.67,4.15,0.86
14689,6.41,-3.12,13.50,0.70,4.27,0.93
14724,4.61,-2.92,14.57,0.69,4.38,0.89
14759,3.32,-3.37,15.15,0.64,4.48,0.96
14794,1.69,-3.12,16.12,0.60,4.57,1.04
14829,0.28,-3.22,16.65,0.54,4.64,1.07
14864,-1.05,-2.73,16.05,0.44,4.70,1.15
14899,-3.06,-3.44,15.58,0.31,4.74,1.21
14934,-3.86,-1.91,13.89,0.20,4.80,1.23
14969,-5.51,-2.74,13.17,0.11,4.78,1.15
15004,-6.67,-2.57,12.37,-0.01,4.81,1.12
15039,-7.47,-0.93,10.97,-0.01,4.85,1.02
15074,-8.15,-1.00,9.49,0.08,4.86,0.92
15109,-8.00,0.42,8.16,0.15,4.90,0.85
15144,-9.99,0.21,7.13,0.23,4.95,0.80
15179,-9.08,-0.43,4.93,0.27,5.01,0.74
15214,-7.76,1.35,4.64,0.34,5.02,0.72
15249,-8.55,0.91,1.76,0.48,5.07,0.76
15284,-6.90,0.01,0.61,0.55,5.08,0.78
15319,-4.43,0.82,0.17,0.65,5.11,0.87
15354,-1.83,-0.40,-1.57,0.69,5.10,0.93
15389,-2.25,-0.21,-2.52,0.69,5.06,0.95
15424,-1.50,-0.43,-1.84,0.69,5.09,0.93
15459,1.03,0.53,-2.44,0.71,5.08,0.92
15494,4.46,-0.21,-1.91,0.71,5.07,0.88
15529,5.11,-0.15,-1.23,0.73,5.08,0.86
15564,7.28,-0.72,-0.40,0.76,5.13,0.83
15599,8.07,-1.78,0.23,0.76,5.10,0.84
15634,7.59,-2.64,2.43,0.73,5.14,0.88
15669,10.53,-2.27,3.45,0.67,5.14,0.93
15704,8.97,-2.02,4.56,0.66,5.18,0.96
15739,10.84,-1.83,6.83,0.69,5.25,1.02
15774,11.21,-2.65,9.61,0.77,5.27,1.10
15809,10.62,-2.66,11.19,0.84,5.28,1.23
15845,8.30,-3.81,12.56,0.93,5.34,1.40
15879,8.07,-5.15,14.73,0.90,5.31,1.49
15914,5.64,-5.42,14.35,0.87,5.31,1.57
15949,5.80,-5.99,18.73,0.78,5.34,1.53
15984,2.72,-5.23,15.94,0.69,5.38,1.47
16019,1.26,-5.11,19.29,0.65,5.45,1.30
16054,-0.45,-4.08,17.13,0.64,5.50,1.23
16089,-2.98,-4.50,18.55,0.64,5.54,1.10
16124,-3.29,-3.94,15.46,0.57,5.56,1.12
16159,-6.96,-3.61,17.32,0.52,5.65,1.11
16194,-7.06,-3.86,14.47,0.39,5.61,1.11
16229,-10.57,-2.86,15.21,0.40,5.73,1.08
16269,-7.14,-1.86,9.84,0.33,5.74,1.03
16304,-8.72,-2.03,9.44,0.45,5.75,1.02
16340,-6.98,-0.99,5.80,0.49,5.75,1.02
16374,-8.84,-0.40,4.29,0.55,5.71,1.03
16409,-5.39,-1.16,4.01,0.55,5.74,1.02
16444,-3.94,-1.13,1.09,0.57,5.69,1.04
16479,-5.09,-0.86,1.02,0.56,5.74,1.02
16514,-0.63,-0.92,1.37,0.58,5.72,1.01
16549,-0.64,0.23,-1.96,0.60,5.70,0.96
16584,1.32,-0.18,0.24,0.66,5.77,0.87
16619,3.93,-0.52,-1.32,0.70,5.81,0.91
16654,4.58,-1.36,0.88,0.76,5.90,0.88
16689,6.64,-1.51,2.19,0.77,5.97,0.92
16724,9.13,-1.75,2.93,0.82,6.02,0.94
16759,8.21,-2.74,5.76,0.86,6.10,1.01
16794,13.78,-3.64,9.61,0.86,6.09,1.06
16829,10.13,-3.08,9.50,0.87,6.00,1.12
16865,7.98,-3.97,11.20,0.85,6.04,1.16
16900,13.61,-5.16,16.30,0.80,5.89,1.19
16934,7.79,-3.95,14.27,0.83,5.84,1.29
16969,5.50,-5.19,14.91,0.78,5.80,1.28
17004,7.41,-4.77,19.16,0.72,5.73,1.25
17039,3.82,-4.47,16.58,0.72,5.68,1.42
17074,2.05,-6.55,20.96,0.65,5.71,1.46
17109,0.24,-4.53,16.97,0.57,5.69,1.49
17144,-1.64,-3.73,15.71,0.58,5.63,1.27
17179,-4.66,-4.31,18.53,0.55,5.57,1.19
17214,-5.67,-4.68,16.27,0.49,5.59,1.21
17249,-5.81,-2.57,13.38,0.53,5.56,1.13
17284,-6.78,-1.01,11.69,0.66,5.45,1.06
17320,-8.88,-3.27,9.60,0.61,5.42,1.06
17354,-8.83,-1.43,8.18,0.60,5.38,1.06
17389,-8.32,-2.26,6.33,0.66,5.35,1.06
17424,-6.99,-1.89,4.23,0.64,5.33,1.06
17459,-8.39,-1.20,2.40,0.64,5.23,1.03
17494,-7.64,-0.90,1.36,0.61,5.25,1.01
17530,-6.38,-1.20,0.74,0.61,5.25,1.02
17564,-5.23,-1.19,-0.64,0.62,5.30,1.09
17599,-2.42,-1.01,-1.06,0.62,5.34,1.11
17634,-1.33,-0.86,-2.00,0.59,5.37,1.12
17669,1.66,0.30,-1.71,0.63,5.45,1.06
17704,4.08,0.08,-0.88,0.68,5.46,0.98
17739,6.28,1.50,-0.49,0.84,5.49,0.86
17774,8.42,0.48,0.71,1.03,5.44,0.75
17809,7.53,-1.46,2.65,1.09,5.34,0.79
17845,10.20,-2.34,2.89,1.07,5.31,0.87
17879,10.15,-2.59,4.60,1.10,5.30,0.94
17914,10.51,-3.79,6.49,1.03,5.28,0.99
17949,10.80,-4.63,8.21,0.93,5.27,1.02
17984,9.81,-4.71,9.30,0.80,5.27,1.03
18019,10.77,-5.19,11.94,0.70,5.28,1.01
18054,9.09,-4.57,12.57,0.69,5.26,1.01
18089,6.90,-4.28,14.34,0.65,5.26,1.02
18124,5.92,-4.37,16.08,0.65,5.19,1.05
18159,3.89,-4.16,15.97,0.67,5.16,1.08
18194,2.87,-5.45,17.88,0.66,5.11,1.07
18229,1.47,-5.26,16.80,0.68,5.07,1.10
18264,-0.96,-3.32,15.09,0.73,5.04,1.01
18304,-3.79,-4.64,17.09,0.76,4.98,0.94
18340,-2.50,-3.59,12.05,0.69,4.94,1.03
18375,-4.74,-3.00,13.16,0.71,4.93,0.95
18409,-7.55,-3.36,12.50,0.63,4.92,0.97
18444,-6.77,-3.79,11.01,0.48,4.92,1.01
18479,-9.01,-1.66,12.43,0.54,5.07,1.01
18514,-9.67,-1.63,7.75,0.56,5.01,0.98
18549,-10.66,-3.80,9.44,0.58,4.99,0.97
18584,-10.08,-1.86,5.99,0.48,5.14,0.97
18619,-7.11,-0.43,1.57,0.48,5.01,0.92
18654,-5.52,-1.50,1.64,0.45,4.95,0.86
18689,-4.23,0.19,-2.11,0.42,4.93,0.82
18724,-1.53,0.68,-2.52,0.45,4.70,0.75
18759,-3.17,0.25,-1.32,0.49,4.68,0.73
18794,0.59,0.60,-4.46,0.49,4.68,0.70
18829,0.45,0.83,-4.36,0.50,4.41,0.72
18864,0.03,0.89,-3.33,0.53,4.40,0.70
18899,4.35,0.09,-5.52,0.57,4.30,0.67
18935,3.61,-0.76,-3.82,0.58,4.22,0.66
18969,5.73,-0.21,-4.01,0.56,4.22,0.71
19004,7.44,-1.15,-3.87,0.55,4.12,0.73
19039,6.79,-0.57,-1.02,0.53,4.12,0.74
19075,8.05,-0.26,-1.24,0.54,4.13,0.74
19109,10.84,-1.62,-0.13,0.62,4.10,0.70
19144,8.63,-1.13,1.43,0.59,4.10,0.71
19179,11.78,-1.50,2.59,0.69,4.12,0.72
19214,8.76,-1.69,3.52,0.78,4.10,0.73
19249,9.15,-2.61,5.31,0.77,4.13,0.76
19284,10.66,-3.88,6.85,0.69,4.13,0.77
19320,9.65,-3.23,8.31,0.63,4.18,0.76
19354,9.56,-3.39,9.86,0.56,4.19,0.74
19389,8.22,-2.61,10.82,0.59,4.18,0.78
19424,6.87,-3.31,11.58,0.57,4.14,0.81
19459,6.67,-3.51,13.10,0.55,4.09,0.82
19494,5.14,-3.75,13.50,0.55,4.04,0.88
19529,3.58,-3.79,13.48,0.51,3.95,0.91
19564,2.39,-3.99,14.05,0.46,3.87,0.90
19599,0.92,-3.81,14.21,0.44,3.79,0.83
19634,-0.48,-3.72,13.00,0.42,3.69,0.84
19669,-1.82,-3.18,13.15,0.40,3.59,0.78
19704,-2.58,-3.01,11.82,0.40,3.50,0.73
19739,-3.67,-2.82,11.25,0.42,3.41,0.67
19774,-4.95,-2.70,11.05,0.45,3.32,0.57
19809,-6.25,-3.88,9.98,0.43,3.23,0.55
19844,-6.33,-2.84,8.45,0.33,3.12,0.58
19879,-7.42,-1.28,8.14,0.35,3.03,0.52
19915,-8.18,-2.58,6.76,0.30,2.91,0.49
19949,-7.82,-1.21,5.45,0.29,2.78,0.45
19984,-8.37,-0.80,4.27,0.29,2.65,0.39
20019,-8.57,-1.18,3.06,0.27,2.51,0.33
20054,-8.09,-0.51,1.86,0.32,2.36,0.28
20089,-7.51,-0.51,0.66,0.34,2.23,0.24
20124,-8.00,-1.51,-0.23,0.34,2.10,0.23
20159,-8.62,-1.13,-0.77,0.26,1.96,0.23
20194,-7.49,-0.74,-1.71,0.37,1.80,0.27
20229,-8.23,-0.76,-2.31,0.47,1.63,0.29
20264,-7.90,0.04,-2.82,0.46,1.48,0.26
20299,-7.13,-0.61,-3.48,0.52,1.31,0.25
20338,-7.55,-0.32,-4.26,0.52,1.11,0.22
20373,-6.96,-0.39,-4.55,0.56,0.93,0.22
20408,-6.81,-0.83,-5.07,0.55,0.75,0.20
20443,-6.81,-1.36,-5.26,0.49,0.59,0.17
20478,-7.15,-0.99,-5.16,0.39,0.47,0.11
20513,-7.17,-1.41,-5.11,0.24,0.38,0.01
20548,-7.63,-0.80,-4.79,0.13,0.32,-0.06
20583,-8.06,-0.56,-4.38,0.09,0.28,-0.09
20618,-8.44,0.42,-4.13,0.15,0.27,-0.08
20652,-8.86,0.21,-3.87,0.24,0.29,-0.04
20687,-8.89,-0.82,-3.90,0.24,0.35,-0.08
20722,-9.62,-1.39,-3.95,0.09,0.46,-0.22
20757,-9.63,-0.91,-3.71,-0.04,0.61,-0.33
20792,-9.23,-2.27,-4.27,-0.19,0.76,-0.46
20827,-9.46,-2.18,-3.99,-0.48,0.94,-0.70
20862,-10.59,-1.08,-4.17,-0.61,1.13,-0.78
20897,-9.10,-0.39,-4.18,-0.62,1.29,-0.75
20932,-8.32,0.30,-4.75,-0.46,1.36,-0.53
20967,-7.87,-0.04,-5.39,-0.24,1.40,-0.23
21002,-7.35,-0.21,-6.09,-0.06,1.43,0.07
21037,-5.89,-1.41,-6.76,0.04,1.42,0.31
21072,-5.45,-1.72,-7.58,0.03,1.41,0.44
21107,-3.57,-1.52,-7.41,0.03,1.33,0.61
21142,-3.22,-0.32,-8.85,0.03,1.23,0.70
21177,-2.75,-0.32,-7.30,0.02,1.12,0.70
21212,-4.17,1.34,-8.56,0.07,1.08,0.72
21247,-5.41,1.77,-7.32,0.13,1.16,0.67
21282,-3.22,1.99,-8.45,0.19,1.24,0.53
21317,-2.04,2.13,-9.37,0.22,1.25,0.34
21353,0.93,1.22,-9.08,0.24,1.18,0.03
21388,1.24,0.66,-9.05,0.23,0.99,-0.15
21422,-0.08,0.74,-9.27,0.23,0.83,-0.14
21457,-2.02,0.14,-9.05,0.24,0.75,0.03
21492,-3.13,-1.01,-9.83,0.19,0.82,0.14
21527,-2.77,0.41,-9.02,0.14,0.94,0.21
21562,-0.75,1.45,-8.85,0.15,1.03,0.21
21596,-0.50,1.26,-9.03,0.17,1.06,0.17
21631,-0.39,0.93,-9.20,0.19,1.11,0.13
21666,-0.78,1.19,-8.64,0.21,1.18,0.11
21701,-6.29,5.94,-9.36,0.27,1.45,0.29
21736,2.50,1.14,-7.00,0.37,1.55,0.19
21771,6.74,6.81,-7.19,0.58,1.39,-0.10
21806,13.75,0.79,-6.32,0.66,1.40,-0.34
21842,8.15,0.54,-8.79,0.61,1.38,-0.40
21876,3.40,-3.72,-7.51,0.50,1.34,-0.30
21911,-0.78,0.78,-10.43,0.20,1.31,0.11
21946,1.09,-0.84,-9.41,0.13,1.38,0.31
21981,3.86,0.34,-7.74,0.16,1.41,0.21
22016,5.47,1.98,-7.26,0.34,1.39,-0.02
22051,5.67,1.68,-7.37,0.49,1.39,-0.09
22086,6.32,1.23,-7.71,0.46,1.36,0.02
22121,7.45,-2.17,-6.97,0.38,1.25,0.07
22156,8.00,-2.12,-6.61,0.22,1.10,0.13
22191,7.08,-1.27,-6.73,0.08,1.04,0.27
22226,5.26,0.91,-6.70,-0.02,1.09,0.42
22261,4.83,2.00,-6.92,0.05,1.24,0.45
22297,6.00,0.84,-5.88,0.21,1.38,0.38
22332,0.32,5.35,-6.35,0.28,1.61,0.24
22371,0.02,3.00,-9.73,0.13,1.47,0.41
22406,10.87,-5.03,-4.21,0.21,1.53,0.29
22441,6.91,2.64,-6.14,-0.14,1.52,0.46
22476,5.86,-2.98,-5.60,-0.32,1.40,0.48
22511,8.17,-0.21,-4.67,-0.35,1.40,0.48
22546,7.28,2.00,-2.99,-0.29,1.53,0.48
22581,7.69,2.24,-3.36,0.07,1.82,0.37
22616,8.11,2.61,-2.43,0.44,2.20,0.33
22651,9.38,-1.80,0.74,0.59,2.45,0.33
22686,11.17,-0.07,2.88,0.57,2.54,0.37
22721,10.60,-1.28,3.76,0.59,2.57,0.40
22756,9.92,-1.15,4.48,0.57,2.54,0.42
22791,9.93,-2.58,4.24,0.48,2.51,0.38
22827,9.33,-2.91,5.14,0.34,2.52,0.30
22861,9.88,-1.12,6.74,0.37,2.42,0.23
22896,9.76,-0.92,7.50,0.50,2.29,0.21
22931,8.38,-1.66,7.22,0.48,2.19,0.13
22966,7.96,-2.23,7.21,0.43,2.17,0.06
23001,6.81,-1.61,6.96,0.35,2.32,-0.07
23036,6.43,-1.93,8.32,0.30,2.47,-0.16
23071,6.53,-0.25,9.42,0.33,2.60,-0.17
23106,5.74,-1.34,10.90,0.40,2.56,-0.13
23140,4.91,-0.30,11.77,0.45,2.31,-0.03
23175,4.15,-1.10,10.77,0.48,2.06,0.11
23210,3.50,-0.90,10.32,0.52,1.96,0.30
23246,3.14,-1.42,10.76,0.54,2.01,0.44
23280,2.54,-1.98,11.94,0.58,2.14,0.54
23316,1.66,-2.19,12.32,0.68,2.17,0.46
23350,0.77,-0.03,10.41,0.65,2.03,0.23
23385,-0.13,0.25,11.45,0.46,1.87,0.08
23420,-0.57,-1.23,10.76,0.30,1.70,0.34
23455,-1.03,-1.60,11.17,0.19,1.66,0.82
23490,-1.53,-1.39,11.67,0.07,1.69,1.09
23525,-1.47,-0.50,10.41,-0.03,1.83,1.05
23559,-2.50,-0.06,11.44,-0.06,1.98,0.89
23594,-3.14,-0.51,11.45,-0.00,2.15,0.72
23629,-3.63,0.62,11.13,0.16,2.34,0.52
23664,-4.51,-0.17,11.01,0.32,2.51,0.42
23699,-5.78,-1.02,11.27,0.42,2.66,0.43
23734,-6.15,-0.60,10.41,0.51,2.77,0.41
23769,-6.95,-1.16,9.53,0.48,2.85,0.41
23804,-8.47,-0.84,9.60,0.45,2.98,0.39
23840,-7.57,-1.90,7.43,0.29,3.11,0.45
23874,-8.63,-0.31,7.14,0.18,3.21,0.46
23910,-8.03,-0.05,4.78,0.07,3.24,0.42
23944,-7.40,0.48,2.18,-0.05,3.12,0.33
23979,-8.87,-1.02,1.06,-0.25,2.95,0.24
24014,-8.78,2.02,1.74,-0.34,2.81,0.14
24049,-10.62,2.67,2.13,-0.31,2.80,0.04
24084,-9.98,0.94,1.54,-0.32,2.90,-0.03
24119,-9.92,-0.65,0.44,-0.52,3.04,-0.16
24154,-10.89,3.69,1.35,-0.52,3.24,-0.24
24189,-9.89,3.72,0.51,-0.24,3.44,-0.10
24224,-7.57,1.27,-2.04,0.05,3.53,0.17
24259,-4.28,1.33,-3.80,0.27,3.45,0.41
24294,-2.86,2.40,-4.79,0.46,3.30,0.61
24330,-0.62,0.38,-6.28,0.49,3.13,0.58
24365,-1.08,1.10,-7.00,0.47,2.96,0.44
24404,-2.54,0.61,-7.18,0.45,2.84,0.39
24439,1.43,0.97,-9.16,0.46,2.65,0.51
24474,-1.51,-4.03,-8.16,0.43,2.73,0.65
24509,1.78,-4.93,-7.16,0.32,2.72,0.74
24544,-4.92,-0.49,-8.18,0.27,2.98,0.90
24579,-5.26,-0.07,-5.94,0.18,3.28,1.17
24614,-2.72,-0.72,-6.75,0.17,3.62,1.13
24649,-1.43,1.29,-4.88,0.19,3.93,1.03
24683,2.64,2.86,-3.78,0.37,4.18,0.90
24718,3.34,3.63,-2.75,0.64,4.43,0.70
24753,5.92,-0.79,-1.99,0.81,4.67,0.64
24788,9.38,-6.12,1.20,0.48,4.73,0.79
24823,10.92,-9.03,2.77,-0.17,4.65,0.78
24858,11.77,-7.63,4.55,-0.70,4.54,0.57
24893,9.69,-4.19,5.88,-1.01,4.54,0.26
24928,9.77,-2.32,6.23,-0.93,4.67,0.04
24963,8.75,-0.41,8.69,-0.85,4.90,-0.14
24998,8.66,0.99,10.27,-0.63,5.12,-0.15
25033,9.22,1.17,13.16,-0.35,5.39,-0.07
25068,7.59,0.29,15.61,-0.17,5.53,0.04
25103,6.10,0.04,16.99,0.10,5.46,0.41
25138,4.19,-1.55,17.24,0.27,5.27,1.03
25173,1.70,-3.50,16.21,0.27,5.04,1.61
25208,-0.22,-3.82,16.09,-0.01,4.77,2.01
25243,-1.38,-2.54,19.35,-0.33,4.84,2.00
25277,-2.76,-0.88,16.34,-0.62,4.75,2.03
25313,-5.09,-6.54,18.39,-0.75,4.85,1.91
25347,-3.83,-0.84,17.41,-0.93,5.07,1.86
25382,-5.68,-1.84,14.29,-1.04,5.16,1.62
25417,-8.10,-3.13,13.39,-1.10,5.26,1.42
25452,-8.62,3.59,14.32,-0.91,5.45,1.19
25486,-10.03,3.44,12.93,-0.48,5.72,0.97
25521,-10.02,1.01,10.38,-0.02,5.91,0.97
25556,-8.96,-0.19,7.91,0.26,6.02,1.05
25591,-7.31,-0.06,5.95,0.43,6.08,1.12
25626,-6.71,-1.03,4.02,0.46,6.11,1.10
25661,-5.34,-0.62,3.37,0.42,6.20,1.00
25696,-3.26,0.15,2.87,0.46,6.31,0.95
25731,-2.61,-0.14,2.13,0.49,6.45,1.00
25766,-0.13,-1.56,2.76,0.52,6.63,1.12
25801,2.07,-2.04,3.08,0.47,6.81,1.30
25836,6.19,-3.79,4.82,0.38,6.94,1.40
25871,9.29,-4.29,6.92,0.25,6.97,1.41
25906,11.47,-2.72,8.68,0.17,6.91,1.35
25941,11.56,-2.98,10.82,0.21,6.83,1.21
25976,10.77,-1.03,12.96,0.31,6.74,1.12
26011,11.68,-1.32,14.84,0.59,6.70,1.17
26046,10.01,-2.33,16.26,0.73,6.74,1.32
26081,8.53,-4.18,18.71,0.73,6.86,1.42
26116,7.97,-5.21,21.55,0.70,6.95,1.48
26151,5.14,-4.61,22.72,0.66,7.07,1.45
26186,2.92,-5.47,23.58,0.64,7.24,1.47
26221,0.57,-4.69,24.97,0.65,7.38,1.42
26256,-1.70,-5.24,24.67,0.63,7.53,1.47
26291,-4.11,-5.04,23.59,0.55,7.61,1.53
26326,-6.54,-4.04,23.56,0.45,7.74,1.54
26361,-7.83,-3.39,21.93,0.34,7.89,1.50
26396,-9.10,-1.16,20.64,0.40,8.06,1.43
26436,-9.08,-2.69,18.36,0.52,8.28,1.42
26471,-7.47,-1.96,16.25,0.66,8.44,1.52
26506,-6.64,-2.92,13.14,0.72,8.57,1.62
26541,-3.09,-3.32,12.12,0.76,8.69,1.78
26576,-1.12,-3.79,11.71,0.71,8.73,1.88
26611,4.10,-3.73,11.93,0.67,8.73,1.77
26646,9.80,-2.97,13.16,0.71,8.73,1.62
26681,11.87,-1.82,15.43,0.86,8.73,1.48
26716,12.62,-2.59,17.18,0.98,8.69,1.46
26751,13.02,-3.87,19.69,0.96,8.65,1.52
26786,12.31,-4.27,22.87,1.05,8.65,1.61
26821,10.58,-5.20,25.50,1.09,8.64,1.69
26856,9.10,-5.77,28.01,1.04,8.65,1.72
26891,6.24,-6.08,29.12,0.98,8.65,1.75
26926,3.66,-6.61,30.55,0.94,8.70,1.72
26961,0.51,-6.15,31.53,0.92,8.73,1.69
26997,-2.33,-5.82,29.54,0.93,8.73,1.72
27031,-5.10,-4.98,28.17,0.90,8.73,1.74
27066,-6.53,-4.06,25.84,0.90,8.73,1.75
27100,-7.41,-4.05,23.18,0.96,8.73,1.76
27135,-8.91,-3.59,21.40,0.97,8.73,1.79
27170,-7.17,-3.51,18.16,0.97,8.73,1.82
27205,-4.61,-3.47,15.21,0.92,8.73,1.82
27240,-0.34,-2.47,13.24,0.89,8.73,1.76
27275,2.91,-0.92,12.43,0.91,8.73,1.64
27310,6.07,-2.16,12.52,0.96,8.73,1.55
27346,8.82,-2.57,13.30,0.97,8.73,1.59
27380,10.15,-4.30,14.87,0.93,8.73,1.64
27415,11.43,-5.06,16.85,0.87,8.73,1.66
27450,12.28,-6.48,20.03,0.79,8.73,1.62
27485,11.71,-5.37,23.35,0.67,8.73,1.52
27520,10.84,-4.99,26.13,0.68,8.73,1.46
27555,8.69,-5.47,28.72,0.71,8.73,1.38
27590,6.34,-5.46,31.08,0.74,8.73,1.40
27625,3.48,-6.02,32.54,0.82,8.73,1.49
27660,0.64,-5.76,32.55,0.81,8.73,1.66
27695,-2.81,-5.18,32.18,0.68,8.73,1.79
27730,-4.53,-4.81,29.58,0.57,8.73,1.76
27765,-5.20,-3.99,25.25,0.50,8.73,1.68
27800,-6.28,-0.92,22.74,0.45,8.73,1.53
27835,-5.80,-0.08,20.46,0.58,8.73,1.43
27870,-4.90,-0.61,17.90,0.70,8.73,1.38
27905,-2.63,-0.95,16.08,0.78,8.73,1.34
27940,1.25,-1.99,15.18,0.84,8.73,1.34
27975,4.39,-1.65,15.27,0.87,8.73,1.40
28010,6.40,-2.99,15.40,0.84,8.73,1.55
28045,8.85,-4.48,17.74,0.79,8.73,1.63
28080,11.03,-4.55,20.75,0.74,8.73,1.61
28115,12.59,-5.56,23.76,0.75,8.73,1.57
28150,12.55,-4.85,27.47,0.83,8.73,1.52
28185,10.44,-4.93,30.80,0.93,8.73,1.59
28220,9.02,-5.69,34.32,0.99,8.73,1.62
28255,5.32,-6.68,35.53,1.02,8.73,1.75
28290,2.01,-6.31,37.02,0.97,8.73,1.86
28325,-0.54,-6.77,35.58,0.93,8.73,1.91
28361,-4.10,-6.89,33.85,0.81,8.73,1.98
28395,-4.56,-3.62,30.84,0.81,8.73,1.95
28430,-6.26,-4.68,26.24,0.90,8.73,1.90
28470,-3.39,-3.42,21.01,1.00,8.73,1.95
28505,-5.19,-4.53,17.85,1.00,8.73,2.06
28540,-4.11,-6.52,16.67,0.95,8.73,2.17
28575,-0.19,-5.67,16.37,0.80,8.73,2.20
28610,3.82,-4.62,16.24,0.67,8.73,2.22
28646,6.60,-6.28,16.08,0.56,8.73,2.19
28680,10.30,-3.46,18.12,0.51,8.73,2.03
28715,11.13,-4.07,21.70,0.60,8.73,1.92
28750,11.78,-4.37,26.01,0.76,8.73,1.83
28785,12.49,-4.25,29.23,0.87,8.73,1.85
28820,11.70,-5.89,31.64,0.94,8.73,1.92
28855,8.90,-5.88,35.07,0.97,8.73,1.92
28889,4.87,-6.58,35.47,0.92,8.73,1.87
28924,2.58,-5.42,36.73,0.95,8.73,1.77
28959,-0.84,-5.66,35.54,1.07,8.73,1.67
28994,-4.09,-6.04,33.13,1.20,8.73,1.66
29029,-4.81,-4.76,28.72,1.30,8.73,1.72
29064,-6.01,-5.72,24.74,1.25,8.73,1.82
29099,-8.02,-3.91,23.14,1.15,8.73,1.86
29134,-5.11,-3.37,20.60,1.04,8.73,1.84
29169,-4.86,-2.40,17.32,0.97,8.73,1.76
29204,-0.05,-0.94,17.08,0.96,8.73,1.73
29239,3.16,-1.71,17.31,0.98,8.73,1.75
29274,5.36,-3.24,17.00,0.98,8.73,1.79
29309,9.83,-4.30,18.00,0.95,8.73,1.82
29345,11.18,-5.93,21.07,0.84,8.73,1.84
29379,12.37,-5.24,24.48,0.75,8.73,1.81
29414,12.69,-5.07,28.29,0.65,8.73,1.74
29449,11.31,-5.88,31.82,0.67,8.73,1.66
29484,8.90,-5.43,34.03,0.73,8.73,1.61
29519,5.72,-5.12,34.96,0.72,8.73,1.62
29554,3.12,-5.70,35.47,0.70,8.73,1.68
29589,-0.80,-6.27,35.05,0.68,8.73,1.72
29624,-2.45,-3.60,33.55,0.71,8.73,1.63
29659,-5.66,-4.28,31.09,0.66,8.73,1.58
29694,-5.67,-2.68,27.08,0.66,8.73,1.53
29729,-5.98,-1.78,23.77,0.70,8.73,1.42
29764,-5.83,-0.88,21.73,0.73,8.73,1.32
29799,-4.23,1.24,19.14,0.82,8.73,1.25
29833,-1.18,1.27,17.60,1.01,8.73,1.22
29868,2.27,0.19,18.71,1.15,8.73,1.27
29903,6.61,-0.60,18.31,1.28,8.73,1.36
29938,9.59,-2.28,18.78,1.35,8.73,1.52
29973,11.04,-4.32,22.30,1.36,8.73,1.65
30008,12.88,-6.08,24.43,1.25,8.73,1.76
30043,13.45,-6.45,27.53,1.13,8.73,1.80
30078,11.34,-7.51,31.40,1.08,8.73,1.83
30113,9.40,-6.09,33.73,1.04,8.73,1.82
30147,6.35,-7.40,33.93,1.03,8.73,1.84
30182,3.36,-7.22,33.87,1.03,8.73,1.86
30217,-0.30,-6.10,34.78,1.01,8.73,1.84
30251,-2.43,-5.50,31.96,0.97,8.73,1.87
30286,-4.92,-5.51,30.69,0.95,8.73,1.84
30322,-6.24,-5.03,29.02,0.93,8.73,1.83
30357,-5.96,-4.09,25.10,0.87,8.73,1.79
30391,-5.01,-2.17,21.77,0.76,8.73,1.71
30426,-3.94,-1.13,18.58,0.75,8.73,1.56
30460,-1.11,-1.31,17.36,0.75,8.73,1.43
30500,-0.57,-1.39,16.42,0.82,8.73,1.45
30535,3.90,-2.47,16.87,0.85,8.73,1.56
30569,8.28,-4.00,17.49,0.83,8.73,1.63
30603,11.17,-5.57,19.61,0.73,8.73,1.71
30639,13.25,-5.49,23.38,0.66,8.73,1.65
30673,12.98,-4.07,26.36,0.68,8.73,1.56
30707,11.27,-5.15,28.85,0.73,8.73,1.52
30741,10.03,-4.88,31.49,0.82,8.73,1.57
30775,8.43,-5.43,33.74,0.90,8.73,1.65
30809,4.79,-6.33,34.26,0.95,8.73,1.75
30844,0.84,-6.34,35.43,0.98,8.73,1.81
30879,-1.82,-4.88,34.82,1.00,8.73,1.80
30914,-4.07,-6.24,31.61,1.00,8.73,1.82
30949,-5.97,-4.39,29.70,0.98,8.73,1.84
30984,-7.08,-5.15,26.88,0.97,8.73,1.87
31018,-6.78,-3.97,23.58,0.91,8.73,1.89
31053,-5.47,-3.28,20.06,0.86,8.73,1.90
31088,-2.99,-4.10,16.86,0.86,8.73,1.93
31122,1.17,-3.84,15.72,0.79,8.73,1.97
31157,5.44,-4.75,16.42,0.71,8.73,2.00
31192,8.71,-4.91,17.24,0.65,8.73,1.93
31226,10.91,-4.67,17.91,0.63,8.73,1.80
31260,12.29,-3.59,20.91,0.65,8.73,1.68
31294,12.45,-3.90,23.52,0.73,8.73,1.59
31329,11.72,-2.48,25.82,0.71,8.73,1.55
31364,9.97,-5.29,29.79,0.85,8.73,1.52
31399,9.32,-4.34,33.56,0.89,8.73,1.47
31434,5.92,-4.22,34.56,0.94,8.73,1.48
31469,3.12,-4.97,36.27,1.07,8.73,1.49
31503,-0.55,-5.24,36.22,1.20,8.73,1.45
31538,-2.68,-4.81,34.61,1.37,8.73,1.51
31573,-5.77,-4.83,31.61,1.50,8.73,1.63
31608,-7.43,-4.78,28.34,1.61,8.73,1.80
31643,-7.27,-6.29,24.53,1.57,8.73,1.98
31678,-4.06,-5.89,21.06,1.47,8.73,2.12
31713,-3.06,-4.79,17.93,1.32,8.73,2.15
31748,0.87,-3.13,16.62,1.22,8.73,2.09
31782,3.85,-3.13,16.23,1.16,8.73,2.02
31817,6.21,-3.26,16.11,1.17,8.73,1.97
31852,9.44,-2.47,17.60,1.22,8.73,1.99
31887,11.32,-3.90,19.93,1.28,8.73,2.02
31922,12.24,-5.08,23.52,1.29,8.73,2.08
31957,12.16,-5.58,27.07,1.19,8.73,2.19
31992,11.14,-6.17,29.15,1.08,8.73,2.24
32026,9.11,-7.18,31.85,0.92,8.73,2.24
32061,6.67,-7.00,34.42,0.76,8.73,2.17
32096,3.40,-8.38,34.99,0.68,8.73,2.10
32131,0.28,-5.09,35.77,0.72,8.73,1.93
32166,-2.84,-5.97,32.66,0.77,8.73,1.78
32200,-5.42,-5.18,31.21,0.82,8.73,1.70
32235,-6.11,-4.24,27.26,0.83,8.73,1.64
32270,-4.95,-2.67,22.78,0.76,8.73,1.56
32304,-4.36,-1.26,20.65,0.70,8.73,1.42
32340,-5.07,-0.17,18.82,0.76,8.73,1.28
32374,-0.06,0.87,17.55,0.84,8.73,1.15
32408,1.92,0.32,16.05,0.99,8.73,1.12
32443,3.84,0.16,16.20,1.19,8.73,1.24
32478,8.32,-1.97,18.28,1.27,8.73,1.41
32518,11.27,-3.29,20.43,1.36,8.73,1.58
32553,13.11,-4.09,23.19,1.36,8.73,1.71
32588,12.64,-5.36,26.98,1.35,8.73,1.80
32622,11.79,-6.81,29.77,1.28,8.73,1.91
32657,10.40,-7.43,32.33,1.20,8.73,1.91
32692,8.51,-7.15,34.80,1.13,8.73,1.88
32726,3.97,-7.55,35.73,1.10,8.73,1.86
32761,0.64,-6.79,35.23,1.14,8.73,1.81
32796,-1.82,-6.35,33.21,1.15,8.73,1.81
32831,-5.04,-6.41,30.16,1.10,8.73,1.84
32866,-5.64,-4.84,26.68,1.04,8.73,1.89
32901,-6.96,-5.63,24.01,0.95,8.73,1.87
32936,-6.84,-4.24,22.24,0.83,8.73,1.83
32972,-6.70,-4.03,19.17,0.80,8.73,1.80
33006,-3.68,-2.67,17.10,0.76,8.73,1.78
33041,0.12,-4.03,16.04,0.76,8.73,1.80
33076,4.35,-3.42,16.04,0.73,8.73,1.76
33111,6.59,-2.08,15.98,0.72,8.73,1.73
33146,10.17,-3.50,19.46,0.80,8.73,1.70
33181,12.63,-4.15,23.16,0.80,8.73,1.64
33216,13.28,-4.07,26.23,0.86,8.73,1.60
33251,12.88,-5.61,28.79,0.90,8.73,1.55
33286,11.70,-5.50,31.56,0.90,8.73,1.47
33321,8.37,-5.57,33.48,0.98,8.73,1.34
33357,5.44,-4.62,34.85,1.09,8.73,1.26
33391,1.91,-4.34,35.52,1.31,8.73,1.26
33425,-0.72,-4.86,34.74,1.51,8.73,1.35
33460,-3.46,-5.89,32.36,1.66,8.73,1.50
33495,-5.12,-5.80,30.03,1.78,8.73,1.71
33530,-6.18,-5.76,26.38,1.88,8.73,1.95
33565,-6.54,-7.14,23.14,1.86,8.73,2.19
33600,-5.12,-8.53,19.49,1.74,8.73,2.43
33634,-5.16,-7.02,17.43,1.49,8.73,2.56
33669,-1.46,-8.25,17.86,1.29,8.73,2.54
33704,2.22,-4.19,17.00,1.14,8.73,2.40
33739,7.27,-4.21,18.68,1.11,8.73,2.33
33775,11.25,-1.60,20.80,1.21,8.73,2.25
33810,13.97,-5.56,22.43,1.32,8.73,2.24
33845,13.18,-6.50,27.04,1.37,8.73,2.37
33879,13.12,-6.39,29.54,1.30,8.73,2.57
33914,10.88,-7.59,30.62,1.17,8.73,2.75
33949,8.50,-9.28,31.55,0.88,8.73,2.77
33984,5.17,-9.24,33.05,0.60,8.73,2.81
34019,2.31,-8.88,34.40,0.30,8.73,2.65
34053,-0.53,-6.17,35.53,0.12,8.73,2.42
34087,-2.99,-4.16,33.41,0.12,8.73,2.10
34122,-5.85,-4.31,31.07,0.14,8.73,1.87
34157,-6.12,-2.10,28.31,0.26,8.73,1.64
34191,-7.65,-3.33,24.47,0.33,8.73,1.46
34226,-5.07,0.46,21.83,0.45,8.73,1.34
34261,-4.36,-0.40,19.31,0.58,8.73,1.22
34296,-1.64,0.79,18.17,0.77,8.73,1.15
34332,2.11,-0.13,18.24,0.94,8.73,1.19
34366,7.13,-0.91,17.86,1.09,8.73,1.23
34401,10.10,-1.70,18.88,1.23,8.73,1.29
34436,12.85,-4.29,22.19,1.31,8.73,1.41
34470,14.28,-4.70,24.62,1.33,8.73,1.51
34505,13.01,-5.15,27.07,1.35,8.73,1.59
34546,12.10,-7.47,29.15,1.33,8.73,1.69
34580,9.03,-7.75,31.52,1.31,8.73,1.78
34615,4.76,-8.28,33.36,1.28,8.73,1.85
34649,2.04,-7.12,35.35,1.29,8.73,1.90
34683,0.24,-7.68,33.58,1.33,8.73,1.90
34717,-2.54,-6.77,32.62,1.43,8.73,1.89
34752,-5.91,-6.75,31.01,1.55,8.73,1.98
34786,-6.06,-7.38,26.73,1.61,8.73,2.17
34821,-7.81,-9.16,23.38,1.52,8.73,2.38
34856,-4.96,-9.03,20.85,1.30,8.73,2.51
34891,-3.49,-8.10,17.37,1.06,8.73,2.54
34926,-1.14,-6.54,15.78,0.83,8.73,2.47
34960,2.04,-5.93,15.11,0.65,8.73,2.33
34994,5.49,-5.17,15.04,0.54,8.73,2.17
35029,8.63,-4.43,16.51,0.46,8.73,2.07
35064,11.46,-5.01,18.45,0.44,8.73,1.88
35099,13.10,-4.62,21.97,0.43,8.73,1.74
35134,12.80,-5.62,25.14,0.36,8.73,1.57
35168,10.46,-5.30,28.13,0.38,8.73,1.39
35203,11.04,-4.78,31.95,0.50,8.73,1.20
35238,9.14,-4.18,34.23,0.64,8.73,1.06
35272,5.56,-3.04,35.50,0.86,8.73,0.95
35307,1.19,-4.47,36.66,1.16,8.73,1.01
35342,-1.17,-2.95,35.77,1.37,8.73,1.09
35378,-4.64,-6.02,32.76,1.46,8.73,1.26
35412,-5.78,-4.58,29.46,1.43,8.73,1.44
35447,-6.04,-4.00,26.10,1.35,8.73,1.53
35481,-5.98,-2.19,23.27,1.26,8.73,1.53
35515,-4.03,-1.67,19.82,1.22,8.73,1.49
35550,-0.03,-0.79,17.68,1.20,8.73,1.32
35584,3.60,2.06,16.25,1.32,8.73,1.24
35619,5.71,2.59,15.97,1.49,8.73,1.18
35654,7.37,0.64,16.01,1.69,8.73,1.30
35688,9.40,-1.69,17.51,1.77,8.73,1.53
35723,10.45,-3.84,20.41,1.79,8.73,1.77
35758,11.86,-4.24,23.01,1.72,8.73,2.01
35792,12.25,-4.97,26.13,1.60,8.73,2.20
35828,11.64,-9.07,28.70,1.37,8.73,2.33
35862,9.50,-8.52,31.82,1.18,8.73,2.33
35898,6.33,-9.17,33.29,0.99,8.73,2.25
35932,2.82,-7.24,34.94,0.88,8.73,2.14
35967,-0.30,-8.54,35.47,0.89,8.73,2.05
36002,-2.67,-5.94,33.30,0.87,8.73,1.97
36037,-5.29,-5.33,29.26,0.87,8.73,1.89
36072,-6.04,-4.20,25.10,0.84,8.73,1.86
36107,-6.39,-3.62,21.96,0.83,8.73,1.81
36142,-4.96,-3.14,19.23,0.85,8.73,1.78
36177,-4.54,-3.06,17.06,0.87,8.73,1.77
36211,-2.84,-3.30,15.41,0.85,8.73,1.73
36246,0.64,-2.97,14.68,0.83,8.73,1.73
36281,4.56,-2.62,14.66,0.86,8.73,1.64
36317,7.82,-2.49,16.21,0.88,8.73,1.64
36351,10.41,-4.84,17.36,0.87,8.73,1.63
36386,12.41,-4.95,20.28,0.85,8.73,1.61
36421,12.38,-3.84,22.84,0.87,8.73,1.61
36456,11.48,-5.48,26.21,0.86,8.73,1.60
36491,10.95,-4.88,29.72,0.88,8.73,1.62
36526,8.77,-6.16,32.54,0.96,8.73,1.66
36566,4.83,-5.99,34.70,0.98,8.73,1.73
36601,1.85,-6.57,34.84,0.99,8.73,1.78
36636,-1.26,-6.86,32.34,0.97,8.73,1.81
36671,-4.00,-5.90,29.99,0.94,8.73,1.81
36706,-5.42,-4.80,27.04,0.93,8.73,1.81
36741,-6.62,-4.10,24.33,0.92,8.73,1.82
36776,-8.59,-4.19,22.35,0.89,8.73,1.85
36811,-6.36,-2.92,19.38,0.88,8.73,1.88
36846,-5.99,-2.83,16.63,0.88,8.73,1.91
36881,-2.19,-3.68,15.28,0.84,8.73,1.95
36916,2.04,-4.05,14.43,0.77,8.73,1.92
36951,6.30,-2.80,13.53,0.70,8.73,1.88
36986,9.13,-3.71,14.92,0.69,8.73,1.79
37021,10.20,-4.72,18.01,0.62,8.73,1.73
37056,10.70,-5.52,20.95,0.60,8.73,1.64
37091,11.79,-5.32,24.29,0.62,8.73,1.55
37126,12.33,-4.27,28.27,0.65,8.73,1.47
37161,10.28,-4.69,31.88,0.66,8.73,1.38
37196,8.37,-4.43,33.09,0.76,8.73,1.34
37231,4.83,-4.44,33.61,0.86,8.73,1.34
37266,0.98,-5.50,33.54,0.93,8.73,1.39
37301,-1.88,-5.32,32.75,0.99,8.73,1.44
37337,-4.23,-4.09,31.29,1.04,8.73,1.49
37372,-6.09,-3.68,28.40,1.06,8.73,1.54
37406,-7.03,-2.97,25.29,1.04,8.73,1.60
37441,-8.07,-2.62,22.04,1.03,8.73,1.63
37476,-5.04,-2.23,18.91,1.06,8.73,1.69
37511,-4.54,-2.21,16.65,1.05,8.73,1.71
37545,-1.95,-2.71,15.30,1.05,8.73,1.74
37580,1.29,-2.30,14.80,1.05,8.73,1.80
37615,5.14,-2.50,14.72,1.06,8.73,1.78
37650,9.18,-3.93,15.52,1.07,8.73,1.83
37685,10.86,-5.05,19.00,1.06,8.73,1.84
37720,12.53,-4.98,21.93,1.01,8.73,1.86
37755,13.02,-4.97,24.83,0.96,8.73,1.88
37790,11.91,-5.50,27.61,0.92,8.73,1.91
37825,10.15,-6.70,29.61,0.87,8.73,1.95
37860,7.88,-6.32,31.14,0.83,8.73,1.99
37895,4.89,-6.44,32.11,0.77,8.73,2.00
37930,1.56,-6.51,32.61,0.66,8.73,2.01
37965,-1.80,-6.74,32.14,0.56,8.73,1.95
38000,-4.43,-5.13,30.39,0.56,8.73,1.82
38035,-6.33,-3.04,28.47,0.60,8.73,1.70
38070,-7.09,-3.10,24.80,0.73,8.73,1.65
38105,-7.32,-3.61,21.88,0.76,8.73,1.61
38140,-6.63,-3.59,18.88,0.75,8.73,1.59
38174,-5.15,-1.17,16.30,0.75,8.73,1.56
38209,-2.00,-1.12,15.45,0.82,8.73,1.49
38244,1.81,-1.45,14.58,0.87,8.73,1.50
38279,5.46,-2.30,14.08,0.92,8.73,1.55
38315,8.70,-2.77,14.64,0.95,8.73,1.60
38349,10.86,-3.46,16.99,0.95,8.73,1.66
38383,12.18,-4.22,20.31,0.95,8.73,1.68
38418,12.95,-4.17,22.65,1.01,8.73,1.69
38454,11.43,-5.11,24.86,1.08,8.73,1.78
38488,10.39,-5.53,27.72,1.08,8.73,1.89
38523,8.37,-6.74,30.39,1.01,8.73,1.92
38558,4.95,-7.47,31.70,0.95,8.73,1.90
38598,1.74,-6.50,33.06,0.90,8.73,1.84
38633,-0.41,-5.38,31.01,0.90,8.73,1.81
38668,-4.42,-5.18,29.11,0.90,8.73,1.78
38704,-5.83,-5.32,26.81,0.82,8.73,1.77
38738,-6.55,-3.94,24.51,0.73,8.73,1.77
38773,-7.06,-3.27,21.75,0.66,8.73,1.70
38807,-6.09,-2.40,19.45,0.66,8.73,1.65
38842,-3.13,-1.81,16.95,0.67,8.73,1.60
38877,-0.68,-2.08,14.39,0.70,8.73,1.58
38912,2.55,-2.99,13.21,0.70,8.73,1.58
38946,6.36,-2.71,13.28,0.68,8.73,1.58
38981,7.86,-2.16,12.34,0.64,8.73,1.55
39016,11.04,-2.45,14.46,0.66,8.73,1.50
39051,12.57,-3.79,17.91,0.66,8.73,1.43
39086,12.78,-3.93,20.97,0.63,8.73,1.36
39121,11.82,-5.84,23.22,0.60,8.73,1.26
39156,9.92,-1.98,26.55,0.67,8.73,1.22
39191,7.94,-4.71,29.48,0.79,8.73,1.14
39226,7.47,-3.65,32.02,0.90,8.73,1.17
39261,4.32,-5.09,32.52,1.02,8.73,1.32
39296,0.55,-5.50,32.87,1.15,8.73,1.46
39332,-2.02,-4.66,30.22,1.17,8.73,1.60
39366,-4.90,-4.11,28.18,1.21,8.73,1.65
39401,-6.05,-3.35,25.50,1.34,8.73,1.72
39436,-6.32,-4.31,22.03,1.48,8.73,1.86
39471,-6.07,-5.53,18.61,1.55,8.73,2.09
39506,-6.38,-6.32,15.87,1.49,8.73,2.33
39541,-5.51,-6.88,13.42,1.28,8.73,2.45
39575,-1.56,-6.00,12.94,1.08,8.73,2.44
39609,1.27,-4.90,12.60,0.89,8.73,2.35
39644,5.86,-3.71,12.11,0.78,8.73,2.25
39679,8.51,-4.14,13.17,0.71,8.73,2.14
39714,10.80,-3.63,16.55,0.71,8.73,2.03
39749,12.28,-4.75,19.46,0.69,8.73,1.98
39784,12.30,-5.00,22.17,0.63,8.73,1.93
39819,11.36,-5.53,24.97,0.62,8.73,1.91
39855,9.97,-6.98,28.40,0.64,8.73,1.93
39889,7.35,-4.78,31.30,0.61,8.73,1.94
39924,3.97,-5.93,31.75,0.57,8.73,1.93
39959,1.25,-5.21,31.81,0.45,8.73,1.91
39994,-1.17,-4.95,30.50,0.33,8.73,1.80
40029,-4.32,-4.27,29.69,0.27,8.73,1.66
40064,-6.38,-2.92,27.87,0.20,8.73,1.50
40099,-6.67,-1.61,24.35,0.16,8.73,1.34
40134,-7.33,-0.55,21.28,0.15,8.73,1.15
40170,-6.46,1.87,18.61,0.22,8.73,0.96
40204,-5.29,1.95,16.28,0.43,8.73,0.82
40238,-3.89,2.91,14.84,0.67,8.73,0.79
40273,0.16,2.49,14.40,0.92,8.73,0.90
40309,3.72,0.83,14.43,1.10,8.73,1.02
40344,6.35,-0.68,14.49,1.24,8.73,1.23
40378,9.12,-3.20,16.22,1.29,8.73,1.39
40413,11.64,-4.12,17.98,1.31,8.73,1.54
40448,13.09,-4.33,20.88,1.30,8.73,1.66
40483,12.42,-4.90,24.89,1.37,8.73,1.78
40518,10.91,-6.63,27.77,1.34,8.73,1.92
40553,8.21,-7.12,30.19,1.25,8.73,2.04
40588,5.41,-7.61,31.57,1.12,8.73,2.11
40628,2.85,-7.90,31.79,1.05,8.73,2.03
40663,-0.27,-6.70,32.07,1.04,8.73,1.95
40698,-2.81,-5.40,29.05,1.06,8.73,1.86
40733,-4.44,-4.95,27.16,1.18,8.73,1.82
40768,-5.52,-4.92,23.82,1.23,8.73,1.87
40803,-7.29,-6.33,21.14,1.23,8.73,1.94
40838,-7.08,-6.36,18.37,1.15,8.73,2.06
40874,-6.05,-6.79,16.08,1.06,8.73,2.14
40909,-4.83,-4.59,14.14,0.93,8.73,2.15
40943,-1.12,-4.98,13.35,0.81,8.73,2.09
40978,2.49,-3.79,13.93,0.73,8.73,1.94
41013,5.81,-3.39,13.88,0.71,8.73,1.82
41048,8.91,-3.74,15.67,0.78,8.73,1.69
41083,11.79,-2.96,18.86,0.81,8.73,1.64
41118,12.13,-3.94,20.95,0.86,8.73,1.62
41153,12.20,-4.35,23.54,0.86,8.73,1.60
41188,12.13,-4.95,26.92,0.88,8.73,1.61
41223,9.61,-5.64,29.06,0.89,8.73,1.61
41258,7.64,-5.43,31.32,0.93,8.73,1.61
41294,4.82,-5.72,31.80,0.98,8.73,1.63
41329,1.84,-5.80,31.42,1.03,8.73,1.67
41363,-1.57,-5.53,30.01,1.06,8.73,1.66
41398,-4.89,-4.22,30.48,1.17,8.73,1.63
41433,-4.70,-3.99,26.81,1.27,8.73,1.67
41468,-7.80,-5.08,24.88,1.35,8.73,1.78
41503,-8.14,-5.20,21.81,1.29,8.73,1.89
41538,-6.45,-4.83,18.70,1.21,8.73,1.98
41573,-6.38,-3.18,15.76,1.03,8.73,1.91
41608,-1.55,-2.27,15.17,0.95,8.73,1.79
41643,1.38,-0.98,14.79,0.93,8.73,1.69
41678,5.35,-1.45,14.42,0.97,8.73,1.63
41713,8.06,-2.08,15.16,1.03,8.73,1.66
41748,10.34,-4.50,17.26,0.95,8.73,1.71
41783,11.52,-4.65,18.70,0.79,8.73,1.71
41818,12.46,-5.10,22.12,0.62,8.73,1.64
41853,11.67,-5.17,25.29,0.54,8.73,1.51
41887,10.75,-5.12,28.57,0.50,8.73,1.34
41922,8.41,-4.30,31.24,0.57,8.73,1.20
41957,5.45,-4.21,32.04,0.70,8.73,1.16
41992,2.62,-3.92,32.60,0.81,8.73,1.22
42028,-0.63,-5.45,31.97,0.85,8.73,1.35
42062,-3.58,-4.46,30.92,0.79,8.73,1.46
42097,-5.81,-3.78,28.90,0.69,8.73,1.46
42132,-6.39,-2.73,26.09,0.61,8.73,1.43
42167,-6.88,-0.30,22.91,0.58,8.73,1.32
42202,-5.69,1.32,19.95,0.65,8.73,1.22
42237,-3.79,0.08,16.73,0.78,8.73,1.19
42271,-1.66,1.81,14.90,0.94,8.73,1.20
42306,2.17,-0.40,14.39,1.08,8.73,1.25
42342,5.42,0.34,14.44,1.21,8.73,1.29
42376,7.61,-0.04,14.89,1.36,8.73,1.32
42411,10.89,-1.56,17.25,1.50,8.73,1.44
42446,12.32,-3.12,19.14,1.55,8.73,1.56
42481,11.83,-5.12,20.64,1.47,8.73,1.74
42516,11.60,-5.82,24.04,1.32,8.73,1.85
42551,10.55,-6.92,27.02,1.21,8.73,1.95
42586,8.29,-6.81,29.46,1.09,8.73,1.99
42621,5.94,-7.43,31.32,1.00,8.73,2.03
42661,2.83,-7.44,32.73,0.86,8.73,2.10
42695,-0.28,-6.84,32.65,0.70,8.73,2.15
42730,-2.93,-5.87,30.64,0.55,8.73,2.14
42766,-5.56,-6.36,29.30,0.36,8.73,2.08
42800,-5.56,-3.82,26.21,0.28,8.73,1.96
42835,-6.18,-3.40,23.03,0.32,8.73,1.82
42870,-7.20,-2.18,20.25,0.37,8.73,1.73
42905,-5.69,-2.66,17.34,0.48,8.73,1.76
42940,-2.13,-3.40,15.21,0.49,8.73,1.77
42975,1.41,-5.78,13.66,0.42,8.73,1.93
43009,4.78,-6.63,13.64,0.24,8.73,2.06
43043,6.47,-7.97,13.57,-0.01,8.73,2.09
43078,9.01,-7.56,15.36,-0.31,8.73,1.96
43113,11.32,-6.27,18.38,-0.45,8.73,1.67
43148,11.05,-4.48,22.39,-0.35,8.73,1.33
43183,11.85,-2.65,25.74,-0.10,8.73,1.05
43218,11.14,-2.49,29.78,0.23,8.73,1.00
43252,9.72,-0.87,32.40,0.54,8.73,0.99
43287,6.26,-3.75,34.57,0.79,8.73,1.05
43322,3.91,-4.21,35.18,1.06,8.73,1.16
43357,0.38,-4.34,35.61,1.29,8.73,1.20
43392,-3.41,-3.47,32.81,1.51,8.73,1.28
43427,-5.96,-5.47,31.23,1.64,8.73,1.44
43462,-6.23,-4.95,27.97,1.70,8.73,1.66
43497,-7.22,-5.59,23.78,1.57,8.73,1.79
43532,-6.27,-3.70,20.64,1.35,8.73,1.84
43566,-3.57,-2.84,18.37,1.21,8.73,1.76
43600,0.69,-1.44,16.64,1.15,8.73,1.68
43635,2.83,-1.78,14.43,1.12,8.73,1.70
43670,5.00,-1.81,15.85,1.12,8.73,1.76
43704,7.48,-2.38,16.53,1.14,8.73,1.79
43739,9.14,-2.31,18.55,1.19,8.73,1.82
43773,11.85,-2.61,21.59,1.19,8.73,1.92
43807,13.62,-3.22,24.35,1.25,8.73,2.02
43843,13.30,-5.08,26.98,1.26,8.73,2.16
43877,11.17,-6.96,29.93,1.16,8.73,2.24
43912,7.91,-6.77,32.44,1.01,8.73,2.25
43947,4.34,-7.32,33.16,0.90,8.73,2.11
43982,2.11,-4.65,34.45,0.86,8.73,1.82
44018,-0.91,-4.49,33.71,1.00,8.73,1.61
44052,-3.63,-4.49,31.24,1.24,8.73,1.51
44087,-5.93,-5.02,28.53,1.36,8.73,1.58
44122,-7.19,-5.34,25.50,1.41,8.73,1.69
44156,-8.01,-5.02,22.49,1.35,8.73,1.78
44191,-6.94,-4.70,19.69,1.22,8.73,1.79
44226,-5.43,-1.78,17.23,1.11,8.73,1.70
44260,-2.04,-0.43,15.65,1.09,8.73,1.56
44295,0.77,0.02,14.66,1.13,8.73,1.47
44331,5.05,-0.69,15.30,1.25,8.73,1.48
44366,8.17,-1.60,16.41,1.35,8.73,1.54
44400,10.41,-3.17,18.77,1.36,8.73,1.64
44435,12.23,-4.55,21.49,1.23,8.73,1.76
44471,12.21,-7.27,24.43,1.05,8.73,1.79
44506,12.24,-7.68,27.29,0.86,8.73,1.74
44540,10.90,-7.00,30.54,0.77,8.73,1.66
44575,7.86,-6.51,32.77,0.79,8.73,1.61
44610,5.09,-6.35,34.75,0.81,8.73,1.65
44645,1.84,-6.60,34.13,0.78,8.73,1.74
44685,-1.90,-6.56,32.45,0.55,8.73,1.88
44720,-4.41,-4.75,31.02,0.35,8.73,1.86
44755,-5.83,-3.07,27.81,0.19,8.73,1.72
44790,-6.64,-2.35,25.20,0.19,8.73,1.52
44826,-6.77,-0.19,22.88,0.17,8.73,1.30
44860,-5.61,1.43,20.24,0.33,8.73,1.18
44895,-2.77,1.44,17.75,0.51,8.73,1.14
44930,0.99,-0.26,16.19,0.73,8.73,1.25
44965,3.60,-1.03,14.75,0.81,8.73,1.44
45000,5.78,-3.31,14.86,0.78,8.73,1.56
45035,8.58,-6.17,16.15,0.65,8.73,1.67
45070,11.38,-5.62,20.00,0.58,8.73,1.64
45105,12.79,-5.41,23.17,0.55,8.73,1.55
45140,12.17,-4.03,26.38,0.64,8.73,1.50
45175,10.86,-5.38,29.53,0.78,8.73,1.53
45209,8.49,-5.19,31.53,0.85,8.73,1.54
45244,6.68,-5.97,33.14,0.88,8.73,1.59
45279,3.55,-7.48,33.38,0.93,8.73,1.67
45315,0.36,-6.77,33.10,0.95,8.73,1.73
45349,-2.68,-4.87,31.97,0.92,8.73,1.74
45384,-4.88,-4.82,29.32,0.93,8.73,1.74
45419,-6.27,-4.15,26.58,0.96,8.73,1.75
45454,-7.14,-4.70,23.89,0.98,8.73,1.79
45489,-5.90,-4.53,21.22,1.05,8.73,1.88
45524,-5.84,-4.23,18.21,1.04,8.73,1.96
45560,-2.78,-5.14,16.12,0.99,8.73,2.02
45594,1.32,-4.01,14.85,0.94,8.73,2.04
45629,4.77,-2.57,14.81,0.92,8.73,1.97
45664,8.17,-2.25,16.18,0.97,8.73,1.91
45699,11.05,-2.72,18.15,1.08,8.73,1.84
45734,12.15,-3.01,20.43,1.22,8.73,1.84
45768,12.86,-3.79,23.65,1.32,8.73,1.92
45803,12.68,-5.54,25.90,1.35,8.73,2.08
45837,10.56,-7.10,28.54,1.28,8.73,2.23
45872,8.14,-8.04,30.93,1.11,8.73,2.24
45907,5.45,-8.75,32.30,0.94,8.73,2.18
45942,2.95,-6.69,33.48,0.83,8.73,2.03
45977,-0.47,-6.05,33.80,0.81,8.73,1.87
46012,-2.74,-5.72,31.64,0.78,8.73,1.79
46047,-5.11,-6.03,29.35,0.73,8.73,1.73
46081,-7.30,-4.34,27.16,0.62,8.73,1.66
46116,-6.35,-3.06,23.42,0.47,8.73,1.52
46151,-4.83,-0.04,20.47,0.45,8.73,1.34
46186,-5.58,1.60,18.37,0.55,8.73,1.18
46221,-2.78,0.86,16.87,0.75,8.73,1.18
46256,0.81,-1.22,16.04,0.89,8.73,1.34
46291,4.62,-2.77,15.86,0.97,8.73,1.48
46326,9.09,-3.04,16.51,0.98,8.73,1.61
46361,11.72,-3.46,18.62,1.02,8.73,1.65
46396,13.16,-2.34,20.17,1.15,8.73,1.67
46431,11.93,-4.59,23.66,1.29,8.73,1.77
46465,11.06,-5.17,27.04,1.36,8.73,1.93
46500,10.86,-7.46,30.15,1.32,8.73,2.08
46535,8.72,-8.32,32.50,1.23,8.73,2.13
46571,5.54,-7.85,33.64,1.13,8.73,2.06
46605,1.70,-7.35,34.50,1.11,8.73,1.97
46640,-1.40,-6.20,34.12,1.24,8.73,1.83
46675,-3.81,-6.39,32.65,1.39,8.73,1.77
46715,-6.31,-6.67,27.89,1.46,8.73,1.88
46750,-7.05,-7.00,24.24,1.33,8.73,2.00
46785,-7.95,-7.47,21.82,1.11,8.73,1.98
46820,-6.64,-4.03,19.84,0.89,8.73,1.88
46855,-4.25,-2.47,17.14,0.80,8.73,1.67
46890,0.62,-0.29,16.35,0.80,8.73,1.46
46925,3.97,-0.15,15.93,0.87,8.73,1.35
46959,6.18,-0.91,15.38,1.01,8.73,1.34
46994,8.76,-0.68,17.05,1.14,8.73,1.41
47029,10.53,-2.57,19.18,1.21,8.73,1.51
47064,11.80,-4.39,22.13,1.19,8.73,1.59
47099,12.16,-5.31,25.42,1.16,8.73,1.64
47134,11.27,-6.62,28.79,1.10,8.73,1.63
47169,9.60,-5.54,31.59,1.08,8.73,1.58
47204,6.89,-5.49,33.83,1.10,8.73,1.56
47239,3.90,-6.41,35.15,1.21,8.73,1.57
47274,0.59,-6.71,35.80,1.33,8.73,1.61
47309,-2.70,-5.56,34.56,1.37,8.73,1.74
47345,-5.94,-6.31,31.87,1.46,8.73,1.86
47379,-5.54,-6.54,27.73,1.43,8.73,1.98
47414,-6.49,-5.85,24.56,1.30,8.73,2.12
47449,-5.30,-6.41,21.10,1.22,8.73,2.25
47484,-3.89,-5.85,18.72,1.07,8.73,2.32
47519,-2.35,-6.61,16.95,0.92,8.73,2.36
47554,0.45,-5.16,16.33,0.72,8.73,2.27
47589,4.25,-5.17,16.92,0.60,8.73,2.17
47624,7.69,-5.75,18.34,0.43,8.73,2.11
47659,10.28,-7.82,20.46,0.21,8.73,1.97
47694,11.66,-5.85,24.46,0.00,8.73,1.76
47729,13.50,-4.11,27.87,0.04,8.73,1.47
47763,11.58,-3.20,32.66,0.24,8.73,1.29
47798,10.23,-3.66,36.03,0.52,8.73,1.17
47834,6.62,-3.29,38.51,0.75,8.73,1.12
47868,4.77,-3.11,40.00,1.10,8.73,1.12
47902,0.25,-4.23,37.68,1.30,8.73,1.22
47936,-2.40,-4.76,37.16,1.49,8.73,1.37
47970,-5.63,-4.83,34.20,1.52,8.73,1.55
48004,-5.68,-5.17,29.80,1.58,8.73,1.76
48038,-7.07,-4.65,26.31,1.55,8.73,1.92
48072,-6.21,-6.46,22.87,1.52,8.73,2.13
48107,-2.70,-4.45,20.80,1.38,8.73,2.20
48142,1.12,-3.54,19.62,1.29,8.73,2.19
48177,5.60,-1.91,20.54,1.28,8.73,2.10
48211,7.68,-1.84,21.16,1.30,8.73,2.03
48246,10.78,-1.78,21.18,1.44,8.73,2.04
48281,11.41,-3.67,25.94,1.46,8.73,2.09
48316,12.92,-3.17,28.75,1.45,8.73,2.23
48351,12.83,-5.92,31.03,1.44,8.73,2.39
48386,10.59,-8.30,34.23,1.25,8.73,2.45
48421,8.72,-7.99,35.87,1.05,8.73,2.30
48456,4.96,-6.37,37.41,0.97,8.73,1.97
48490,1.02,-5.20,37.44,1.07,8.73,1.69
48525,-0.26,-4.11,33.35,1.30,8.73,1.54
48560,-5.65,-6.26,33.86,1.50,8.73,1.65
48595,-6.34,-6.07,31.34,1.48,8.73,1.85
48630,-6.62,-6.45,27.11,1.40,8.73,2.00
48664,-8.08,-5.69,25.04,1.28,8.73,2.11
48699,-5.27,-5.61,21.90,1.12,8.73,2.15
48739,-1.52,-3.33,19.44,0.97,8.73,2.09
48774,1.21,-4.55,18.84,0.88,8.73,2.01
48808,5.77,-3.35,18.13,0.80,8.73,1.94
48843,8.28,-4.17,18.82,0.69,8.73,1.93
48878,11.07,-5.43,22.74,0.58,8.73,1.86
48913,12.64,-6.79,25.61,0.38,8.73,1.69
48947,12.31,-5.51,29.29,0.25,8.73,1.43
48982,11.93,-5.36,33.12,0.30,8.73,1.13
49017,9.06,-1.48,36.54,0.60,8.73,0.96
49052,6.72,-3.49,38.42,0.88,8.73,0.95
49087,2.72,-3.33,38.18,1.20,8.73,1.10
49122,0.15,-4.36,38.90,1.34,8.73,1.30
49156,-4.15,-4.14,37.10,1.42,8.73,1.45
49191,-5.64,-4.29,34.59,1.48,8.73,1.64
49226,-6.72,-4.82,29.54,1.46,8.73,1.74
49261,-5.46,-2.60,26.68,1.38,8.73,1.88
49296,-7.06,-6.50,23.16,1.32,8.73,1.99
49332,-2.13,-1.94,22.29,1.18,8.73,2.02
49366,1.78,-5.17,20.00,1.09,8.73,2.03
49401,6.58,-5.11,19.18,1.01,8.73,2.07
49436,9.14,-7.29,20.81,0.72,8.73,2.24
49471,12.24,-10.44,22.63,0.31,8.73,2.28
49505,13.47,-7.02,27.08,0.10,8.73,2.04
49539,14.43,-4.42,30.25,0.06,8.73,1.75
49574,11.86,-4.22,34.07,0.24,8.73,1.56
49609,10.80,-3.24,35.78,0.45,8.73,1.49
49644,5.84,-4.47,38.46,0.59,8.73,1.49
49679,4.61,-4.42,40.34,0.78,8.73,1.50
49714,-0.15,-3.68,40.74,0.88,8.73,1.52
49749,-1.37,-4.85,35.38,0.90,8.73,1.56
49784,-5.30,-2.89,32.75,1.03,8.73,1.59
49819,-6.45,-3.26,29.97,0.95,8.73,1.59
49854,-6.14,-1.11,26.90,0.99,8.73,1.62
49889,-5.10,-1.46,23.52,1.09,8.73,1.66
49924,-2.69,-2.41,20.30,1.14,8.73,1.76
49959,2.86,-3.85,18.99,1.17,8.73,1.90
49994,7.02,-2.95,18.56,1.07,8.73,1.99
50029,10.67,-4.55,18.74,1.00,8.73,1.98
50064,11.76,-6.77,20.88,0.84,8.73,1.97
50099,12.38,-6.17,23.18,0.65,8.73,1.92
50134,12.93,-5.48,25.94,0.61,8.73,1.81
50169,12.34,-6.16,29.01,0.57,8.73,1.70
50204,10.47,-5.58,32.58,0.61,8.73,1.61
50239,9.63,-4.53,35.13,0.70,8.73,1.65
50274,5.42,-4.99,35.67,0.76,8.73,1.66
50309,0.85,-5.89,36.02,0.72,8.73,1.74
50345,-0.68,-4.21,34.32,0.70,8.73,1.73
50380,-3.32,-3.45,32.22,0.77,8.73,1.66
50415,-5.77,-2.54,29.46,0.96,8.73,1.62
50449,-6.79,-3.48,26.45,1.17,8.73,1.68
50484,-8.04,-4.34,23.59,1.23,8.73,1.81
50519,-6.43,-3.15,20.57,1.22,8.73,1.92
50554,-1.87,-4.00,17.51,1.17,8.73,1.86
50589,3.25,-1.25,16.37,1.17,8.73,1.80
50623,6.82,-1.18,15.77,1.19,8.73,1.72
50658,8.77,-1.55,16.33,1.26,8.73,1.71
50693,10.07,-3.78,16.82,1.31,8.73,1.76
50728,10.90,-5.56,19.46,1.29,8.73,1.88
50768,12.12,-7.19,23.57,1.11,8.73,1.94
50803,12.56,-8.17,27.06,0.93,8.73,1.91
50838,11.21,-7.52,30.26,0.80,8.73,1.81
50873,7.98,-7.02,32.14,0.73,8.73,1.68
50908,5.70,-5.96,33.65,0.74,8.73,1.66
50943,2.97,-6.47,34.23,0.74,8.73,1.74
50978,-0.57,-6.40,34.63,0.70,8.73,1.79
51013,-3.66,-5.48,33.11,0.61,8.73,1.79
51048,-5.94,-3.95,30.15,0.56,8.73,1.73
51083,-5.65,-3.13,26.24,0.60,8.73,1.66
51117,-6.48,-3.04,23.03,0.71,8.73,1.63
51151,-4.43,-4.10,19.65,0.86,8.73,1.71
51186,-3.69,-2.75,16.61,0.94,8.73,1.77
51221,-2.36,-3.93,15.55,0.97,8.73,1.85
51256,0.50,-3.49,15.80,0.96,8.73,1.82
51291,4.13,-1.79,15.44,1.03,8.73,1.74
51325,8.71,-3.53,16.39,1.11,8.73,1.78
51361,11.12,-3.17,18.38,1.17,8.73,1.87
51395,11.92,-4.26,20.97,1.20,8.73,1.98
51430,10.81,-6.39,24.29,1.14,8.73,2.12
51465,12.00,-7.88,27.79,1.12,8.73,2.27
51500,10.39,-8.24,31.34,1.03,8.73,2.46
51535,6.71,-9.94,33.96,0.81,8.73,2.49
51570,5.28,-9.38,35.37,0.54,8.73,2.53
51605,1.50,-9.17,35.55,0.20,8.73,2.50
51640,-2.49,-7.04,34.78,0.03,8.73,2.26
51675,-4.67,-5.64,34.57,-0.01,8.73,2.00
51710,-6.69,-2.42,32.04,0.08,8.73,1.70
51745,-5.32,-1.22,27.49,0.27,8.73,1.42
51779,-5.89,-0.47,25.94,0.28,8.73,1.09
51815,-7.91,2.68,23.98,0.46,8.73,0.81
51849,-3.53,6.64,23.21,0.83,8.73,0.47
51883,0.11,5.24,22.32,1.27,8.73,0.62
51918,6.38,1.84,24.09,1.78,8.73,0.77
51953,11.20,-1.32,25.78,2.01,8.73,1.25
51988,14.37,-2.44,28.96,2.10,8.73,1.68
52023,12.58,-10.45,32.82,2.16,8.73,2.16
52057,13.64,-12.79,36.01,1.88,8.73,2.48
52092,10.08,-12.35,39.73,1.55,8.73,2.70
52127,5.71,-14.12,42.59,1.24,8.73,2.60
52162,2.60,-12.59,45.42,1.00,8.73,2.59
52197,0.06,-14.46,41.38,0.65,8.73,2.75
52232,-4.45,-10.29,41.03,0.27,8.73,2.60
52267,-6.67,-6.19,40.11,-0.17,8.73,2.28
52303,-4.97,1.59,36.28,-0.15,8.73,1.78
52337,-8.97,-0.61,33.33,0.19,8.73,1.51
52372,1.13,-0.88,31.50,0.55,8.73,1.41
52408,4.60,-1.47,27.65,0.91,8.73,1.55
52442,10.47,-1.21,28.98,1.16,8.73,1.56
52477,12.05,-2.89,29.38,1.61,8.73,1.49
52512,13.83,-5.42,30.55,1.90,8.73,1.77
52547,13.82,-7.13,36.18,2.10,8.73,2.21
52581,12.30,-10.96,38.87,2.12,8.73,2.72
52616,13.27,-13.91,45.29,1.91,8.73,3.26
52651,6.72,-14.42,43.30,1.48,8.73,3.71
52686,1.16,-16.61,50.75,0.75,8.73,3.59
52721,-3.72,-13.60,54.65,0.26,8.73,3.48
52755,-2.78,-9.52,48.01,0.22,8.73,2.96
52795,-6.21,-10.34,43.24,0.71,8.73,2.56
52830,0.90,-9.84,34.35,0.69,8.73,2.52
52865,4.33,-7.88,29.82,0.59,8.73,2.22
52900,5.60,-3.40,28.61,0.62,8.73,1.89
52934,2.35,-1.97,27.93,0.82,8.73,1.84
52969,8.65,-7.67,28.42,0.92,8.73,1.98
53004,14.51,-4.58,34.88,1.15,8.73,1.95
53039,15.02,-4.36,37.97,1.61,8.73,2.01
53074,14.17,-7.41,38.81,1.88,8.73,2.38
53109,10.67,-10.47,41.00,1.88,8.73,2.93
53144,10.05,-15.76,45.77,1.50,8.73,3.17
53179,4.87,-14.39,47.86,1.00,8.73,3.33
53214,1.03,-13.62,48.54,0.67,8.73,3.12
53248,-3.37,-11.42,47.83,0.56,8.73,2.80
53283,-1.41,-9.49,39.12,0.35,8.73,2.54
53318,-4.81,-5.87,34.82,0.25,8.73,2.14
53353,-2.94,-2.25,33.00,0.26,8.73,1.81
53388,-1.00,0.16,30.74,0.46,8.73,1.48
53423,2.94,1.89,30.61,0.80,8.73,1.36
53458,8.68,0.28,29.31,1.14,8.73,1.37
53493,13.16,-4.87,28.47,1.46,8.73,1.59
53528,13.84,-7.23,34.34,1.56,8.73,1.83
53563,13.70,-9.43,38.63,1.64,8.73,2.09
53598,14.32,-9.54,40.71,1.74,8.73,2.45
53633,9.91,-12.25,42.44,1.69,8.73,2.94
53668,7.35,-12.32,44.98,1.38,8.73,3.18
53702,3.10,-15.36,48.20,0.99,8.73,3.16
53737,-1.16,-13.11,47.54,0.81,8.73,2.96
53772,-3.51,-10.62,41.73,0.78,8.73,2.67
53807,-4.27,-9.16,36.61,0.64,8.73,2.50
53842,-3.66,-6.44,32.50,0.74,8.73,2.33
53877,-3.11,-5.58,28.49,0.84,8.73,2.21
53912,-0.37,-5.92,25.91,0.85,8.73,1.98
53947,1.65,-2.36,25.24,0.94,8.73,1.65
53981,8.32,0.56,26.85,1.26,8.73,1.40
54016,12.14,1.87,27.66,1.74,8.73,1.39
54051,14.87,-2.84,30.77,2.06,8.73,1.62
54085,14.24,-7.49,32.41,2.05,8.73,1.97
54120,13.50,-8.80,37.01,1.90,8.73,2.32
54155,11.65,-12.86,40.03,1.55,8.73,2.48
54190,8.47,-12.69,43.09,1.32,8.73,2.46
54224,4.37,-12.23,43.94,1.09,8.73,2.64
54259,-0.58,-12.58,44.57,0.73,8.73,2.73
54294,-3.98,-7.88,43.31,0.48,8.73,2.58
54329,-4.66,-5.91,39.66,0.31,8.73,2.30
54364,-6.27,-4.71,35.23,0.32,8.73,2.01
54399,-4.17,-2.06,31.57,0.38,8.73,1.73
54434,-1.61,-0.51,27.90,0.56,8.73,1.39
54469,2.88,2.37,25.37,0.90,8.73,1.12
54504,5.46,7.43,26.41,1.40,8.73,0.73
54539,10.41,3.87,25.01,2.04,8.73,0.88
54574,14.01,0.23,29.58,2.42,8.73,1.37
54609,13.13,-4.55,31.15,2.57,8.73,1.89
54644,13.03,-17.20,37.03,2.29,8.73,2.27
54679,13.34,-13.71,42.13,1.76,8.73,2.38
54714,8.95,-9.91,47.05,1.35,8.73,2.18
54749,2.45,-12.12,42.49,1.26,8.73,2.04
54783,-0.09,-14.95,43.77,1.22,8.73,2.36
54822,-0.25,-11.71,34.52,0.63,8.73,2.56
54857,-7.10,-8.56,39.28,0.18,8.73,2.36
54892,-9.48,-4.36,36.64,-0.06,8.73,2.04
54927,-2.54,-1.49,30.98,0.03,8.73,1.65
54962,-3.36,0.13,25.54,0.16,8.73,1.29
54997,0.66,1.24,23.47,0.49,8.73,1.11
55032,2.71,0.88,23.47,0.82,8.73,1.15
55067,5.49,-0.35,21.58,1.15,8.73,1.19
55102,9.20,-0.10,27.64,1.43,8.73,1.34
55137,13.87,-4.38,29.16,1.49,8.73,1.58
55172,14.72,-6.55,33.09,1.51,8.73,1.79
55207,12.97,-9.65,35.49,1.52,8.73,2.02
55242,10.63,-10.98,36.91,1.47,8.73,2.24
55277,6.80,-10.69,39.52,1.34,8.73,2.43
55313,3.76,-11.08,40.55,1.04,8.73,2.68
55348,-0.43,-12.45,40.90,0.67,8.73,2.83
55382,-2.97,-10.38,37.88,0.28,8.73,2.74
55417,-6.53,-6.39,35.93,0.03,8.73,2.42
55453,-8.63,-4.92,32.37,-0.03,8.73,2.07
55487,-4.23,-0.32,29.02,0.06,8.73,1.73
55522,-1.87,-0.17,22.96,0.31,8.73,1.55
55556,-3.39,-1.08,20.92,0.50,8.73,1.45
55591,6.62,-4.30,23.87,0.60,8.73,1.45
55626,7.17,-2.20,20.01,0.76,8.73,1.44
55661,11.27,-3.20,20.77,0.83,8.73,1.46
55696,13.27,-6.97,27.65,0.89,8.73,1.49
55731,16.34,-7.16,27.93,0.80,8.73,1.44
55766,13.25,-6.31,31.06,0.73,8.73,1.37
55801,10.81,-7.98,30.87,0.81,8.73,1.29
55836,9.07,-5.60,34.13,0.92,8.73,1.33
55871,5.04,-7.63,34.89,1.03,8.73,1.66
55906,3.21,-8.70,36.77,0.91,8.73,2.08
55941,0.16,-8.61,35.33,0.62,8.73,2.28
55976,-2.54,-7.98,31.94,0.28,8.73,2.30
56011,-6.09,-4.68,31.71,0.10,8.73,2.09
56046,-5.75,-3.36,26.90,0.12,8.73,1.85
56080,-5.64,-2.95,22.97,0.14,8.73,1.60
56115,-7.01,-0.41,21.42,0.31,8.73,1.51
56150,-4.47,-0.44,19.69,0.51,8.73,1.49
56185,0.96,-1.56,18.18,0.67,8.73,1.48
56220,2.84,-3.07,17.11,0.75,8.73,1.52
56256,6.51,-3.10,17.48,0.83,8.73,1.54
56290,9.27,-3.76,19.55,0.90,8.73,1.59
56325,12.39,-4.96,20.46,0.97,8.73,1.61
56360,13.98,-5.45,25.04,1.01,8.73,1.65
56394,12.97,-4.87,28.40,1.05,8.73,1.72
56429,10.95,-6.26,30.86,1.18,8.73,1.87
56464,8.73,-6.69,32.47,1.15,8.73,2.02
56499,5.86,-8.23,33.70,1.03,8.73,2.21
56534,2.43,-9.00,34.80,0.85,8.73,2.34
56569,-0.14,-8.42,35.65,0.73,8.73,2.31
56604,-3.57,-6.21,34.95,0.69,8.73,2.16
56639,-4.94,-6.46,31.24,0.68,8.73,2.07
56673,-4.74,-5.54,27.46,0.72,8.73,2.01
56708,-7.15,-5.50,24.77,0.72,8.73,1.98
56743,-4.78,-3.84,21.84,0.72,8.73,1.95
56778,-3.06,-4.87,18.86,0.76,8.73,1.95
56813,-0.01,-3.79,17.12,0.76,8.73,1.96
56853,3.48,-3.83,17.01,0.73,8.73,1.86
56887,6.69,-3.49,17.71,0.73,8.73,1.78
56922,10.20,-4.37,19.53,0.82,8.73,1.67
56957,13.15,-3.18,22.19,0.91,8.73,1.60
56991,13.17,-3.05,25.16,1.06,8.73,1.61
57026,11.71,-3.88,28.31,1.17,8.73,1.68
57061,11.47,-5.74,30.53,1.19,8.73,1.74
57096,9.17,-7.11,32.69,1.17,8.73,1.76
57131,5.56,-6.51,33.11,1.10,8.73,1.74
57166,2.28,-6.73,35.76,1.12,8.73,1.75
57201,0.28,-7.24,35.32,1.17,8.73,1.78
57236,-3.11,-6.17,34.10,1.15,8.73,1.84
57271,-6.05,-6.16,31.36,1.15,8.73,1.91
57305,-4.66,-5.10,26.63,1.15,8.73,1.97
57340,-7.07,-5.47,24.30,1.11,8.73,2.00
57374,-5.92,-5.52,21.73,1.11,8.73,2.11
57409,-3.25,-4.25,18.83,1.01,8.73,2.12
57444,-2.30,-4.42,16.34,0.91,8.73,2.03
57479,0.34,-2.31,15.91,0.84,8.73,1.95
57514,5.54,-2.81,17.94,0.89,8.73,1.82
57549,10.00,-3.31,18.09,0.91,8.73,1.77
57583,12.39,-4.05,21.72,0.90,8.73,1.76
57617,14.02,-4.37,23.11,0.85,8.73,1.73
57652,13.51,-5.58,25.50,0.76,8.73,1.67
57687,10.48,-7.30,29.08,0.75,8.73,1.57
57723,9.95,-4.43,32.26,0.75,8.73,1.45
57757,7.18,-6.05,35.35,0.79,8.73,1.37
57791,3.52,-5.16,35.76,0.92,8.73,1.36
57825,0.93,-5.78,35.19,1.05,8.73,1.41
57860,-1.36,-4.77,33.53,1.10,8.73,1.48
57895,-3.56,-4.22,30.86,1.13,8.73,1.55
57930,-5.88,-3.66,28.23,1.03,8.73,1.60
57965,-5.75,-4.15,24.93,0.97,8.73,1.60
58000,-5.83,-2.23,21.77,0.93,8.73,1.59
58035,-4.72,-1.63,19.35,0.92,8.73,1.54
58070,-1.23,-0.09,17.27,0.99,8.73,1.46
58104,1.38,-0.39,15.70,1.06,8.73,1.42
58139,5.50,-0.40,15.77,1.17,8.73,1.43
58174,8.88,-1.04,16.86,1.28,8.73,1.49
58209,11.54,-3.47,18.73,1.35,8.73,1.59
58244,11.61,-3.97,21.73,1.37,8.73,1.73
58279,12.09,-5.33,24.44,1.33,8.73,1.84
58315,11.78,-5.54,26.91,1.22,8.73,1.93
58349,10.76,-6.82,30.23,1.14,8.73,1.98
58384,9.30,-7.34,33.72,1.09,8.73,2.03
58418,5.18,-7.84,34.65,1.03,8.73,2.05
58453,2.00,-6.33,34.83,0.94,8.73,2.06
58488,-0.01,-7.03,33.58,0.95,8.73,2.00
58523,-3.62,-7.13,31.65,0.95,8.73,1.96
58558,-5.29,-4.42,29.15,1.06,8.73,1.95
58593,-5.24,-5.17,25.00,1.15,8.73,1.99
58628,-6.66,-4.68,21.92,1.25,8.73,2.08
58663,-6.53,-6.45,18.91,1.23,8.73,2.21
58698,-3.93,-6.41,16.73,1.09,8.73,2.23
58733,-1.18,-4.19,15.39,0.94,8.73,2.14
58768,0.41,-2.94,15.36,0.86,8.73,1.96
58803,4.51,-3.94,15.21,0.87,8.73,1.84
58838,7.55,-2.61,17.20,0.87,8.73,1.81
58878,10.90,-4.37,19.13,0.92,8.73,1.76
58913,11.76,-4.31,22.04,0.90,8.73,1.72
58948,12.37,-4.62,25.83,0.88,8.73,1.71
58983,11.66,-5.85,29.71,0.85,8.73,1.66
59018,9.85,-4.81,32.90,0.86,8.73,1.65
59053,6.76,-5.86,33.85,0.89,8.73,1.61
59088,3.59,-5.16,34.79,0.96,8.73,1.56
59123,0.33,-5.12,34.46,1.08,8.73,1.54
59158,-3.01,-4.92,32.04,1.18,8.73,1.58
59193,-4.20,-5.10,29.02,1.26,8.73,1.65
59228,-6.67,-4.05,26.26,1.28,8.73,1.75
59263,-8.06,-4.41,23.82,1.27,8.73,1.84
59298,-6.57,-3.48,20.98,1.19,8.73,1.88
59334,-5.64,-3.84,17.60,1.07,8.73,1.86
59368,-4.44,-1.36,16.69,1.07,8.73,1.83
59403,1.25,-2.60,15.61,1.03,8.73,1.71
59438,4.92,-1.33,14.39,1.11,8.73,1.69
59474,7.55,-0.75,15.89,1.20,8.73,1.66
59508,10.50,-1.94,15.99,1.39,8.73,1.63
59543,11.88,-3.34,20.70,1.42,8.73,1.73
59578,12.39,-5.02,23.95,1.37,8.73,1.86
59613,11.81,-7.67,26.74,1.15,8.73,1.84
59648,10.10,-7.34,29.61,0.99,8.73,1.75
59683,8.86,-6.26,32.92,0.87,8.73,1.52
59718,5.77,-4.88,31.85,0.90,8.73,1.25
59753,1.91,-5.79,33.40,1.10,8.73,1.10
59788,-0.45,-4.09,33.31,1.18,8.73,1.24
59822,-3.24,-5.49,30.88,1.20,8.73,1.38
59857,-6.48,-4.53,29.81,1.13,8.73,1.51
59892,-4.22,-3.61,24.68,1.09,8.73,1.57
59927,-7.47,-3.31,21.61,1.02,8.73,1.59
59962,-6.92,-1.42,19.71,1.04,8.73,1.61
59997,-4.54,-3.65,17.24,1.09,8.73,1.66
60032,-2.59,-1.72,15.22,1.07,8.73,1.66
60067,-0.65,-1.33,14.25,1.08,8.73,1.61
60102,5.29,-0.46,15.84,1.20,8.73,1.50
60137,9.93,-0.57,16.12,1.39,8.73,1.48
60172,11.63,-2.87,18.79,1.52,8.73,1.55
60207,13.60,-5.13,20.61,1.47,8.73,1.71
60242,13.37,-6.10,23.30,1.33,8.73,1.83
60277,11.99,-7.50,26.10,1.16,8.73,1.89
60312,9.94,-7.09,28.77,1.00,8.73,1.84
60347,7.99,-6.98,30.83,0.93,8.73,1.80
60383,5.44,-6.85,32.00,0.90,8.73,1.78
60417,2.77,-5.98,31.63,0.86,8.73,1.80
60452,-0.35,-6.47,32.43,0.83,8.73,1.82
60486,-3.80,-5.29,31.48,0.76,8.73,1.80
60521,-5.61,-5.06,29.39,0.59,8.73,1.79
60556,-7.66,-3.32,27.80,0.50,8.73,1.69
60591,-9.03,-2.26,24.23,0.50,8.73,1.56
60626,-7.18,-0.31,20.83,0.52,8.73,1.43
60661,-3.58,-0.72,18.11,0.64,8.73,1.36
60696,-0.70,-0.58,16.20,0.72,8.73,1.30
60731,1.83,-0.92,14.61,0.80,8.73,1.33
60766,4.59,-1.71,15.44,0.91,8.73,1.35
60801,8.25,-3.37,15.68,0.93,8.73,1.47
60837,10.58,-3.05,16.87,0.94,8.73,1.51
60871,12.04,-4.75,20.51,0.91,8.73,1.53
60911,12.95,-4.75,24.14,0.95,8.73,1.55
60946,11.97,-5.96,26.54,0.96,8.73,1.57
60981,10.63,-5.71,29.36,0.95,8.73,1.54
61016,8.32,-6.45,31.80,1.01,8.73,1.59
61050,5.17,-5.79,32.51,1.04,8.73,1.68
61084,2.38,-5.66,33.00,1.10,8.73,1.66
61118,-0.75,-5.51,33.58,1.23,8.73,1.65
61153,-3.65,-5.07,32.34,1.42,8.73,1.65
61188,-5.84,-6.38,29.20,1.56,8.73,1.74
61223,-6.07,-7.45,25.78,1.64,8.73,1.93
61257,-7.83,-7.68,21.86,1.58,8.73,2.15
61292,-4.03,-6.94,19.30,1.42,8.73,2.29
61327,-6.03,-7.08,15.59,1.21,8.73,2.34
61362,-3.42,-5.02,15.37,1.04,8.73,2.35
61397,0.69,-5.13,14.99,0.90,8.73,2.30
61431,5.36,-3.41,14.89,0.86,8.73,2.14
61466,9.39,-1.67,17.54,0.94,8.73,2.00
61501,12.14,-1.17,18.93,1.11,8.73,1.89
61536,13.19,-2.09,21.66,1.33,8.73,1.94
61571,12.63,-4.23,24.50,1.44,8.73,2.12
61606,12.02,-7.56,27.18,1.40,8.73,2.30
61641,10.31,-8.16,29.80,1.20,8.73,2.40
61676,7.62,-8.14,31.98,1.00,8.73,2.42
61711,5.41,-7.09,33.71,0.84,8.73,2.40
61746,2.15,-7.69,33.95,0.60,8.73,2.40
61781,-1.52,-7.22,33.56,0.45,8.73,2.27
61816,-5.20,-4.75,33.94,0.48,8.73,2.13
61851,-4.09,-2.75,28.86,0.60,8.73,1.99
61886,-3.77,-4.58,24.47,0.80,8.73,1.94
61921,-5.57,-5.20,21.22,0.91,8.73,1.97
61956,-5.22,-4.09,18.39,0.94,8.73,2.08
61991,-3.34,-5.17,15.78,0.89,8.73,2.12
62026,0.40,-5.46,14.61,0.78,8.73,2.13
62061,1.93,-4.67,13.77,0.67,8.73,2.06
62096,3.56,-3.55,14.00,0.62,8.73,1.98
62131,8.83,-4.01,16.25,0.60,8.73,1.89
62166,12.17,-3.94,18.91,0.68,8.73,1.76
62201,12.25,-3.32,22.06,0.74,8.73,1.70
62236,12.38,-5.27,24.96,0.77,8.73,1.65
62271,11.46,-5.20,28.78,0.84,8.73,1.63
62306,9.20,-4.99,31.26,0.85,8.73,1.59
62342,7.13,-5.38,33.47,0.88,8.73,1.59
62376,3.42,-5.36,34.62,0.97,8.73,1.55
62412,0.62,-5.74,33.51,1.05,8.73,1.58
62446,-1.47,-4.66,31.39,1.17,8.73,1.58
62480,-3.00,-4.44,29.14,1.31,8.73,1.61
62515,-3.95,-3.91,25.35,1.37,8.73,1.71
62550,-6.16,-4.93,22.74,1.38,8.73,1.84
62584,-6.15,-4.20,20.60,1.32,8.73,1.93
62619,-5.43,-6.00,18.48,1.20,8.73,1.97
62654,-2.89,-2.93,16.35,1.07,8.73,1.89
62689,0.76,-1.59,15.02,1.05,8.73,1.82
62724,5.30,-1.31,14.94,1.07,8.73,1.73
62759,7.65,-1.71,15.33,1.13,8.73,1.75
62794,8.97,-2.32,17.19,1.21,8.73,1.75
62829,11.10,-3.45,19.63,1.29,8.73,1.81
62865,11.58,-2.59,22.17,1.36,8.73,1.92
62899,11.85,-5.96,25.61,1.31,8.73,2.05
62939,11.38,-7.71,29.93,1.21,8.73,2.18
62974,9.33,-7.85,32.31,1.01,8.73,2.15
63009,5.82,-7.32,33.51,0.91,8.73,2.02
63044,2.68,-6.94,34.97,0.86,8.73,1.92
63079,-0.58,-6.03,33.22,0.87,8.73,1.84
63114,-2.96,-4.66,30.98,0.91,8.73,1.77
63149,-4.73,-4.70,27.83,0.93,8.73,1.75
63184,-7.23,-4.51,25.62,0.98,8.73,1.75
63219,-7.93,-4.80,23.48,0.98,8.73,1.77
63254,-4.01,-4.03,20.38,1.00,8.73,1.83
63289,-5.06,-4.13,16.81,0.97,8.73,1.81
63324,-1.96,-2.28,16.01,0.91,8.73,1.77
63359,0.76,-3.40,15.30,0.87,8.73,1.80
63394,4.05,-3.56,14.20,0.84,8.73,1.82
63428,7.80,-4.82,15.14,0.79,8.73,1.84
63463,11.11,-5.38,19.33,0.73,8.73,1.83
63498,13.72,-5.20,22.11,0.68,8.73,1.79
63533,12.55,-6.95,25.38,0.72,8.73,1.72
63568,12.73,-4.82,27.76,0.77,8.73,1.71
63603,10.26,-6.13,30.72,0.81,8.73,1.79
63638,7.68,-6.09,32.43,0.82,8.73,1.88
63673,4.74,-6.29,33.90,0.78,8.73,1.98
63708,1.57,-7.06,34.18,0.67,8.73,2.00
63743,-1.34,-5.92,32.89,0.54,8.73,1.99
63778,-4.46,-4.82,31.22,0.49,8.73,1.90
63813,-5.65,-2.95,28.91,0.41,8.73,1.81
63849,-7.80,-3.68,26.04,0.39,8.73,1.66
63883,-7.33,-0.47,23.59,0.43,8.73,1.49
63918,-6.24,-0.38,20.22,0.55,8.73,1.45
63953,-3.41,-1.40,17.85,0.68,8.73,1.44
63988,0.74,-1.74,16.28,0.79,8.73,1.54
64022,3.34,-3.23,15.77,0.81,8.73,1.62
64057,6.10,-3.63,16.02,0.79,8.73,1.69
64092,9.22,-2.49,17.20,0.81,8.73,1.66
64127,10.88,-3.48,19.80,0.89,8.73,1.63
64161,12.08,-4.51,22.54,0.88,8.73,1.60
64195,13.15,-5.96,25.48,0.86,8.73,1.57
64230,11.03,-6.25,28.23,0.87,8.73,1.52
64265,10.71,-5.98,30.46,0.79,8.73,1.36
64300,8.13,-5.10,31.65,0.84,8.73,1.20
64335,4.37,-4.82,33.34,0.98,8.73,1.18
64371,0.22,-5.09,34.14,1.12,8.73,1.29
64405,-2.01,-6.27,31.84,1.14,8.73,1.45
64440,-5.88,-6.11,31.28,1.04,8.73,1.59
64475,-5.16,-3.91,28.20,0.89,8.73,1.65
64510,-8.16,-4.39,25.68,0.78,8.73,1.62
64545,-6.79,-1.02,23.04,0.73,8.73,1.55
64580,-6.42,-1.10,19.62,0.76,8.73,1.46
64615,-4.90,-0.12,16.88,0.86,8.73,1.41
64649,-1.34,-1.01,15.85,0.96,8.73,1.43
64684,4.15,-1.56,15.53,1.02,8.73,1.52
64718,7.59,-1.19,16.21,1.11,8.73,1.57
64752,10.64,-3.55,18.70,1.13,8.73,1.65
64786,12.69,-3.31,21.02,1.18,8.73,1.68
64821,13.38,-4.06,21.71,1.22,8.73,1.73
64855,11.98,-5.56,25.16,1.29,8.73,1.84
64890,11.34,-6.51,28.14,1.24,8.73,1.95
64925,8.81,-7.16,30.46,1.10,8.73,1.95
64965,6.45,-7.58,33.17,1.02,8.73,1.98
65000,2.89,-6.68,34.76,0.92,8.73,2.00
65034,0.67,-6.40,33.41,0.88,8.73,2.00
65069,-2.41,-5.01,31.67,0.84,8.73,1.96
65104,-6.11,-6.12,30.65,0.82,8.73,1.93
65139,-5.78,-4.39,26.98,0.84,8.73,1.93
65174,-6.56,-5.25,23.49,0.96,8.73,2.01
65209,-4.09,-4.51,20.88,1.05,8.73,2.16
65244,-3.00,-6.49,17.54,1.05,8.73,2.33
65279,-2.90,-6.46,14.48,0.93,8.73,2.38
65315,1.75,-5.99,15.17,0.76,8.73,2.27
65349,5.87,-3.25,15.29,0.70,8.73,2.10
65384,7.77,-2.24,16.48,0.77,8.73,1.92
65419,10.16,-3.21,18.72,0.88,8.73,1.79
65454,13.00,-1.53,21.36,1.02,8.73,1.76
65489,11.94,-3.53,24.38,1.10,8.73,1.81
65524,12.72,-5.30,27.19,1.08,8.73,1.85
65559,11.40,-5.88,30.13,1.06,8.73,1.86
65594,8.39,-6.82,33.61,1.01,8.73,1.81
65629,4.57,-6.23,33.92,1.00,8.73,1.78
65664,1.64,-5.37,34.96,1.02,8.73,1.76
