timestamp,accelX,accelY,accelZ,gyroX,gyroY,gyroZ
270477,12.19,-5.33,12.86,0.41,7.05,1.01
270512,10.93,-2.16,15.35,0.47,6.98,0.93
270547,10.08,-1.83,17.04,0.66,6.96,0.97
270582,10.38,-5.29,19.18,0.82,7.01,1.09
270617,7.09,-4.19,20.38,0.80,6.99,1.00
270652,5.52,-5.27,22.08,0.79,6.96,0.99
270687,3.55,-5.24,21.98,0.85,6.94,1.11
270722,0.57,-2.99,22.64,0.88,6.91,0.92
270757,-1.80,-5.22,22.84,1.00,6.94,0.98
270792,-2.67,-5.56,20.54,1.03,6.92,1.09
270827,-6.12,-2.35,21.65,1.08,6.99,1.04
270862,-7.36,-7.92,18.70,0.62,7.05,1.15
270897,-8.70,-5.03,17.24,-0.23,7.14,1.16
270932,-9.53,0.47,16.59,-0.54,7.26,0.90
270967,-10.34,2.73,15.62,-0.44,7.46,0.68
271002,-9.88,4.21,14.49,-0.11,7.73,0.65
271037,-7.62,2.04,11.47,0.31,7.94,0.87
271072,-5.57,-1.30,9.69,0.50,8.07,1.09
271107,-2.31,-0.72,9.51,0.58,8.20,1.21
271142,1.25,-0.52,9.56,0.62,8.33,1.27
271177,3.35,-0.13,10.79,0.74,8.47,1.24
271212,5.40,-1.62,11.97,0.90,8.70,1.20
271247,9.45,-4.47,14.74,0.82,8.73,1.36
271282,12.39,-4.74,17.98,0.74,8.73,1.37
271317,12.67,-5.34,21.11,0.67,8.73,1.30
271352,12.57,-5.67,24.15,0.64,8.73,1.15
271387,11.14,-5.35,27.11,0.74,8.73,1.03
271422,8.68,-4.63,29.77,0.90,8.73,0.91
271457,6.25,-3.91,30.64,1.00,8.73,0.81
271492,2.71,-4.42,31.12,1.25,8.73,0.83
271527,-0.04,-3.76,30.89,1.44,8.73,0.95
271562,-3.65,-6.38,28.76,1.42,8.73,1.23
271597,-6.03,-5.47,26.59,1.35,8.71,1.42
271632,-6.30,-5.95,23.55,1.23,8.73,1.58
271667,-7.34,-3.71,21.63,1.13,8.73,1.67
271702,-5.44,-3.57,18.31,1.14,8.73,1.77
271737,-5.52,-4.85,14.69,1.13,8.73,1.92
271772,-2.51,-5.56,13.04,1.09,8.73,2.13
271807,0.02,-5.80,12.12,0.93,8.73,2.19
271842,2.27,-4.97,11.42,0.79,8.73,2.11
271877,5.33,-4.00,13.06,0.67,8.73,2.01
271912,8.18,-4.25,14.81,0.69,8.73,1.88
271947,10.66,-4.87,16.64,0.59,8.73,1.84
271982,12.20,-3.87,19.40,0.56,8.73,1.76
272017,13.47,-3.80,22.26,0.55,8.73,1.68
272052,11.95,-3.84,25.17,0.57,8.73,1.65
272087,10.13,-5.54,27.96,0.71,8.73,1.73
272123,7.52,-4.73,29.79,0.81,8.73,1.94
272162,4.98,-6.28,30.24,0.72,8.62,2.21
272197,1.94,-5.54,29.87,0.47,8.58,2.26
272232,-0.53,-5.19,30.06,0.32,8.59,2.14
272267,-3.87,-3.85,29.19,0.27,8.64,1.98
272302,-6.62,-2.61,28.28,0.39,8.69,1.80
272337,-7.33,-2.32,24.49,0.55,8.73,1.69
272372,-7.75,-2.95,21.15,0.68,8.73,1.68
272407,-7.20,-2.96,18.37,0.82,8.73,1.79
272442,-4.89,-3.55,14.96,0.88,8.73,1.93
272477,-1.53,-4.21,12.33,0.87,8.73,2.04
272512,1.39,-4.41,11.26,0.76,8.73,2.03
272547,4.55,-4.22,11.91,0.66,8.73,1.95
272582,6.33,-2.99,11.59,0.60,8.73,1.85
272617,8.53,-3.89,13.76,0.59,8.73,1.76
272652,10.90,-3.30,16.26,0.58,8.73,1.67
272687,11.99,-3.59,19.94,0.57,8.73,1.61
272722,12.92,-4.70,22.92,0.54,8.73,1.49
272757,11.96,-4.87,25.96,0.52,8.73,1.35
272792,9.57,-4.37,27.56,0.54,8.73,1.15
272827,8.00,-3.78,29.98,0.67,8.73,1.03
272862,4.69,-2.85,31.62,0.83,8.73,0.91
272897,1.78,-3.20,31.98,1.07,8.73,0.88
272932,-1.30,-3.49,32.01,1.26,8.73,0.95
272967,-4.21,-5.42,29.83,1.27,8.73,1.15
273002,-6.49,-4.80,26.91,1.07,8.73,1.32
273037,-7.00,-3.07,23.94,0.87,8.73,1.35
273072,-7.85,-1.54,21.74,0.77,8.73,1.29
273107,-4.28,0.23,18.43,0.81,8.73,1.23
273142,-3.13,0.52,15.42,0.91,8.73,1.18
273177,-0.89,1.60,13.69,1.01,8.73,1.20
273212,2.24,-0.83,12.57,1.11,8.73,1.28
273247,5.26,-0.42,12.93,1.20,8.73,1.34
273282,6.40,-0.78,13.87,1.27,8.73,1.39
273317,9.45,-2.45,16.41,1.34,8.73,1.48
273352,11.88,-3.37,18.78,1.30,8.73,1.59
273387,12.85,-5.27,20.74,1.17,8.73,1.69
273422,12.26,-5.15,23.90,1.00,8.73,1.70
273457,10.68,-5.84,26.44,0.95,8.73,1.72
273492,8.45,-3.90,29.11,0.89,8.73,1.73
273527,6.81,-6.96,31.20,0.92,8.73,1.97
273562,4.02,-7.27,32.24,0.89,8.73,2.14
273597,0.71,-7.17,31.92,0.70,8.73,2.25
273632,-2.22,-6.52,30.42,0.54,8.73,2.22
273667,-4.98,-5.20,29.55,0.54,8.73,2.07
273702,-6.07,-3.68,27.39,0.59,8.73,1.96
273737,-7.54,-4.16,24.03,0.71,8.73,1.94
273772,-7.09,-4.36,20.90,0.81,8.73,2.00
273807,-5.16,-4.76,16.34,0.88,8.73,2.17
273842,-2.45,-4.84,13.11,0.83,8.73,2.28
273877,1.04,-8.64,12.47,0.65,8.73,2.51
273912,3.64,-10.77,12.82,0.34,8.73,2.62
273947,4.94,-9.13,12.27,0.05,8.73,2.55
273982,7.41,-8.36,14.28,-0.17,8.73,2.38
274017,9.08,-6.73,17.21,-0.30,8.73,2.10
274052,11.78,-3.10,20.94,-0.25,8.73,1.81
274087,12.33,-2.84,25.29,0.01,8.73,1.63
274122,11.68,-3.88,29.31,0.23,8.73,1.54
274157,9.45,-4.08,32.12,0.42,8.73,1.57
274197,7.00,-4.92,34.06,0.54,8.73,1.73
274232,2.86,-6.15,33.93,0.52,8.73,1.84
274267,0.01,-5.72,33.59,0.42,8.73,1.89
274302,-1.72,-3.69,31.67,0.24,8.73,1.88
274337,-4.00,-3.25,30.52,0.16,8.73,1.75
274373,-6.05,-1.84,27.41,0.13,8.73,1.57
274407,-5.74,-0.57,23.51,0.25,8.73,1.40
274442,-4.79,1.28,20.14,0.38,8.73,1.30
274477,-4.44,0.60,17.71,0.57,8.73,1.26
274512,-1.90,0.15,15.95,0.70,8.73,1.24
274547,0.80,0.48,14.93,0.82,8.73,1.26
274582,4.64,0.21,14.74,0.92,8.73,1.31
274617,6.67,-2.24,14.15,0.98,8.73,1.44
274652,9.75,-4.82,16.70,0.93,8.73,1.54
274687,11.31,-5.42,19.97,0.80,8.73,1.59
274722,12.32,-5.28,22.47,0.68,8.73,1.57
274757,12.12,-5.63,25.51,0.65,8.73,1.47
274792,10.93,-5.30,28.82,0.68,8.73,1.38
274827,9.00,-3.86,31.61,0.77,8.73,1.32
274862,6.59,-5.50,32.98,0.87,8.73,1.35
274897,3.44,-5.54,33.70,0.96,8.73,1.42
274932,0.51,-4.88,34.29,1.04,8.73,1.49
274967,-2.09,-4.04,31.40,1.12,8.73,1.51
275002,-4.38,-3.74,28.59,1.27,8.73,1.50
275037,-6.26,-4.72,25.45,1.34,8.73,1.59
275072,-6.08,-5.52,22.42,1.28,8.73,1.69
275107,-5.98,-4.52,20.47,1.18,8.73,1.75
275142,-4.80,-3.27,17.85,1.09,8.73,1.71
275177,-3.10,-2.02,15.68,1.06,8.73,1.67
275212,-0.12,-2.03,14.81,1.08,8.73,1.64
275247,4.38,-2.07,15.32,1.11,8.73,1.65
275282,7.16,-2.26,16.02,1.14,8.73,1.71
275317,9.06,-3.08,17.00,1.20,8.73,1.74
275352,11.10,-4.38,19.77,1.19,8.73,1.81
275387,12.52,-3.66,23.63,1.17,8.73,1.90
275422,12.63,-5.47,26.34,1.21,8.73,2.01
275457,11.74,-6.76,29.55,1.18,8.73,2.11
275492,8.56,-8.16,31.65,1.08,8.73,2.19
275527,5.24,-7.85,32.45,0.93,8.73,2.17
275562,2.75,-7.22,34.63,0.84,8.73,2.08
275597,-0.06,-6.39,32.72,0.82,8.73,1.96
275632,-2.92,-5.21,30.87,0.86,8.73,1.82
275667,-5.69,-5.93,29.16,0.96,8.73,1.73
275702,-6.41,-4.41,26.60,0.99,8.73,1.71
275737,-6.71,-3.87,22.82,0.89,8.73,1.66
275772,-5.88,-2.73,19.52,0.80,8.73,1.56
275807,-3.04,0.09,16.80,0.70,8.73,1.30
275842,0.14,1.32,14.70,0.78,8.73,1.05
275877,0.95,2.04,13.32,0.92,8.73,0.90
275912,4.51,1.65,14.42,1.13,8.73,0.98
275947,5.96,-0.68,15.57,1.21,8.73,1.18
275982,9.03,-2.96,17.77,1.19,8.73,1.37
276018,12.20,-5.08,20.63,1.16,8.73,1.48
276052,13.68,-6.23,22.98,1.09,8.73,1.53
276087,13.17,-5.37,26.29,1.05,8.73,1.55
276122,10.83,-6.61,29.02,1.05,8.73,1.57
276157,8.24,-5.95,31.29,1.03,8.73,1.54
276192,4.85,-5.67,32.22,1.05,8.73,1.55
276232,2.48,-6.07,31.99,1.11,8.73,1.56
276267,-0.56,-6.06,30.79,1.19,8.73,1.56
276302,-3.05,-5.16,29.89,1.30,8.73,1.58
276338,-5.67,-6.76,28.31,1.37,8.73,1.71
276372,-7.32,-4.63,25.97,1.42,8.73,1.86
276407,-7.96,-6.05,22.14,1.46,8.73,2.03
276442,-5.60,-6.23,18.12,1.43,8.73,2.25
276477,-5.02,-7.37,14.67,1.36,8.73,2.45
276512,-2.41,-7.25,13.68,1.16,8.73,2.51
276547,0.89,-6.52,13.13,0.96,8.73,2.43
276581,4.12,-3.27,13.87,0.88,8.73,2.16
276616,6.61,-2.03,14.84,0.93,8.73,1.99
276651,8.77,-1.43,16.65,1.09,8.73,1.87
276686,11.54,-2.14,19.87,1.24,8.73,1.87
276721,13.41,-2.54,22.50,1.36,8.73,1.94
276756,13.35,-4.61,24.97,1.40,8.73,2.08
276791,11.66,-7.35,26.80,1.29,8.73,2.18
276826,9.58,-6.02,29.40,1.05,8.73,2.16
276861,7.12,-7.60,30.80,0.86,8.73,2.09
276895,4.17,-7.19,31.64,0.80,8.73,2.02
276930,0.73,-6.60,32.96,0.76,8.73,1.92
276965,-2.04,-5.58,31.42,0.75,8.73,1.83
277000,-4.47,-5.25,29.46,0.79,8.73,1.75
277035,-4.90,-4.02,26.27,0.84,8.73,1.72
277070,-6.06,-4.55,22.98,0.87,8.73,1.72
277105,-5.83,-2.87,19.82,0.89,8.73,1.72
277140,-4.64,-2.89,17.10,0.88,8.73,1.72
277175,-3.90,-3.75,14.38,0.89,8.73,1.73
277210,-1.65,-1.64,13.18,0.88,8.73,1.68
277245,1.73,-1.93,13.39,0.89,8.73,1.61
277280,4.94,-2.21,13.55,0.95,8.73,1.57
277315,8.61,-2.96,14.00,0.99,8.73,1.59
277350,10.99,-3.96,17.03,1.01,8.73,1.63
277385,12.17,-4.54,19.47,0.99,8.73,1.64
277420,12.49,-5.00,21.97,0.98,8.73,1.66
277455,11.87,-5.91,24.62,1.04,8.73,1.73
277490,10.21,-6.28,27.85,1.03,8.73,1.79
277525,7.91,-7.29,30.96,1.01,8.73,1.78
277560,4.67,-5.82,32.38,0.95,8.73,1.72
277595,1.40,-5.55,32.83,1.02,8.73,1.62
277630,-1.36,-4.53,32.38,1.16,8.73,1.55
277665,-4.15,-4.03,30.50,1.28,8.73,1.50
277700,-5.66,-5.74,27.61,1.31,8.73,1.59
277735,-6.75,-5.16,25.26,1.25,8.73,1.69
277769,-7.57,-5.29,22.45,1.12,8.73,1.72
277804,-5.15,-3.48,19.12,0.95,8.73,1.66
277839,-2.79,-1.44,16.18,0.88,8.73,1.50
277874,-1.03,-0.56,14.15,0.91,8.73,1.37
277909,2.54,-0.01,13.52,0.98,8.73,1.31
277944,6.01,-0.26,13.66,1.10,8.73,1.29
277979,8.53,-0.42,13.69,1.21,8.73,1.35
278014,10.24,-1.53,15.47,1.25,8.73,1.48
278049,11.80,-3.99,19.46,1.25,8.73,1.61
278084,12.89,-4.31,22.14,1.18,8.73,1.71
278119,12.33,-5.54,24.31,1.13,8.73,1.77
278154,11.04,-6.51,27.40,1.07,8.73,1.81
278189,9.23,-6.99,30.12,1.04,8.73,1.84
278224,5.71,-7.22,31.51,0.99,8.73,1.90
278264,2.82,-6.80,32.96,0.94,8.73,1.90
278299,-0.22,-7.20,33.04,0.90,8.73,1.89
278334,-2.94,-6.13,30.87,0.91,8.73,1.84
278369,-5.78,-6.09,28.66,0.91,8.73,1.82
278404,-6.24,-4.42,25.75,0.91,8.73,1.82
278439,-7.07,-3.99,21.73,0.95,8.73,1.82
278474,-6.29,-3.56,18.16,0.93,8.73,1.84
278509,-4.16,-3.49,15.41,0.89,8.73,1.83
278544,-2.14,-2.64,13.83,0.84,8.73,1.77
278579,1.55,-2.20,13.33,0.81,8.73,1.72
278614,5.30,-1.77,13.54,0.82,8.73,1.60
278649,7.98,-2.50,13.85,0.83,8.73,1.58
278684,9.99,-3.42,16.27,0.84,8.73,1.57
278719,11.46,-5.46,18.74,0.79,8.73,1.58
278754,12.55,-4.64,20.95,0.70,8.73,1.55
278789,11.99,-5.51,23.54,0.63,8.73,1.47
278824,10.49,-5.78,27.01,0.56,8.73,1.31
278859,8.11,-4.70,29.83,0.61,8.73,1.16
278894,7.12,-4.33,32.53,0.76,8.73,1.19
278929,3.85,-5.16,32.99,0.93,8.73,1.30
278964,0.34,-6.07,32.76,0.98,8.73,1.50
278999,-2.13,-4.86,30.09,0.95,8.73,1.57
279034,-5.15,-4.64,28.78,0.95,8.73,1.56
279069,-6.26,-3.12,26.55,0.94,8.73,1.56
279104,-6.98,-3.61,23.21,0.95,8.73,1.57
279139,-6.53,-2.76,20.78,0.95,8.73,1.57
279174,-6.33,-1.80,18.20,0.96,8.73,1.56
279209,-4.66,-0.09,15.40,0.94,8.73,1.44
279244,-0.14,0.84,14.04,1.04,8.73,1.34
279279,3.38,2.49,13.77,1.17,8.73,1.25
279315,5.60,1.80,14.11,1.43,8.73,1.14
279349,6.98,-0.14,14.14,1.67,8.73,1.21
279384,9.29,-2.96,17.76,1.76,8.73,1.42
279419,11.51,-5.61,21.12,1.63,8.73,1.64
279454,12.75,-6.90,24.32,1.38,8.73,1.72
279489,11.92,-7.27,27.12,1.15,8.73,1.72
279524,9.88,-7.37,29.13,0.95,8.73,1.53
279559,8.08,-5.81,31.49,0.91,8.73,1.26
279594,5.09,-5.22,32.98,1.02,8.73,1.09
279629,1.88,-5.22,32.91,1.17,8.73,1.15
279664,-1.14,-6.28,31.44,1.15,8.73,1.38
279699,-4.22,-6.22,29.94,1.01,8.73,1.56
279734,-5.55,-4.56,27.37,0.82,8.73,1.65
279769,-6.15,-4.18,23.82,0.74,8.73,1.64
279804,-7.50,-2.29,21.26,0.78,8.73,1.61
279838,-6.87,-2.37,18.67,0.83,8.73,1.64
279873,-4.75,-2.92,15.93,0.85,8.73,1.69
279908,-2.26,-2.18,14.38,0.87,8.73,1.73
279942,1.28,-2.29,14.04,0.85,8.73,1.71
279977,5.48,-3.06,14.24,0.86,8.73,1.66
280012,8.35,-1.83,14.84,0.89,8.73,1.64
280046,10.85,-4.19,17.08,0.90,8.73,1.64
280081,11.87,-5.36,19.82,0.82,8.73,1.64
280116,12.38,-5.41,22.51,0.75,8.73,1.59
280151,12.09,-5.34,26.06,0.72,8.73,1.51
280186,10.53,-4.77,29.00,0.74,8.73,1.45
280221,8.34,-4.65,30.99,0.80,8.73,1.39
280256,5.10,-4.72,30.90,0.86,8.73,1.39
280296,1.81,-6.34,32.30,0.90,8.73,1.52
280331,-1.09,-5.47,32.11,0.81,8.73,1.64
280366,-3.53,-5.43,29.79,0.71,8.73,1.70
280401,-5.73,-3.95,27.75,0.60,8.73,1.68
280436,-6.52,-2.64,24.48,0.58,8.73,1.61
280471,-7.22,-1.85,22.12,0.65,8.73,1.59
280506,-5.85,-1.84,19.50,0.77,8.73,1.63
280541,-4.58,-3.08,16.47,0.80,8.73,1.68
280576,-2.57,-2.09,14.64,0.82,8.73,1.72
280611,1.07,-3.34,13.03,0.82,8.73,1.82
280646,4.01,-3.14,13.42,0.77,8.73,1.86
280681,6.98,-4.26,14.22,0.73,8.73,1.89
280716,10.48,-2.96,16.35,0.73,8.73,1.84
280751,12.65,-2.94,19.11,0.86,8.73,1.77
280786,13.51,-3.57,21.65,0.94,8.73,1.75
280821,12.62,-3.74,23.52,1.02,8.73,1.80
280856,10.85,-4.71,25.16,1.08,8.70,1.91
280891,8.39,-6.41,26.74,1.02,8.73,1.96
280926,6.94,-6.38,29.88,0.94,8.73,1.92
280961,3.84,-6.71,31.59,0.89,8.73,1.83
280996,0.77,-6.05,31.53,0.96,8.73,1.68
281031,-1.93,-4.67,30.86,1.13,8.73,1.49
281066,-4.42,-4.84,28.80,1.25,8.73,1.50
281101,-7.23,-4.43,27.18,1.33,8.73,1.59
281136,-7.35,-5.51,23.96,1.32,8.73,1.72
281171,-7.24,-5.77,20.38,1.21,8.73,1.80
281206,-7.65,-3.99,17.22,1.11,8.73,1.85
281241,-5.98,-1.71,15.13,0.99,8.73,1.79
281276,-1.63,-2.59,14.32,0.98,8.73,1.77
281311,0.80,-1.68,13.22,0.97,8.73,1.73
281347,5.58,-1.71,14.06,0.99,8.73,1.69
281381,9.08,-2.48,14.72,1.07,8.73,1.67
281416,11.24,-2.27,17.28,1.17,8.73,1.67
281451,12.43,-3.29,19.95,1.22,8.73,1.72
281486,12.58,-3.22,21.95,1.29,8.73,1.82
281521,11.83,-4.76,24.55,1.33,8.73,1.97
281556,10.46,-6.84,27.12,1.25,8.73,2.09
281591,8.09,-7.23,29.29,1.11,8.73,2.09
281626,5.07,-7.62,30.69,0.95,8.73,2.03
281661,2.63,-5.95,31.31,0.87,8.73,1.87
281696,-0.27,-5.63,31.46,0.89,8.73,1.75
281731,-3.02,-4.66,30.22,0.91,8.73,1.74
281766,-5.23,-4.34,27.79,0.94,8.73,1.76
281801,-5.71,-4.25,24.06,0.89,8.73,1.76
281836,-6.43,-3.99,21.24,0.82,8.73,1.74
281871,-6.54,-2.19,19.41,0.77,8.73,1.70
281906,-5.06,-2.44,16.31,0.74,8.73,1.64
281941,-4.30,-0.62,14.41,0.76,8.73,1.59
281976,0.05,-2.07,13.14,0.79,8.73,1.61
282011,2.16,-2.73,12.39,0.75,8.73,1.61
282046,4.75,-3.04,11.52,0.72,8.73,1.63
282081,7.73,-3.70,13.34,0.67,8.73,1.64
282116,9.59,-5.20,15.35,0.61,8.73,1.58
282151,11.50,-5.40,18.22,0.55,8.73,1.49
282186,12.43,-5.40,21.89,0.54,8.73,1.39
282221,11.90,-4.02,24.87,0.54,8.73,1.26
282256,10.93,-5.06,27.43,0.61,8.73,1.15
282291,8.49,-4.20,30.85,0.76,8.73,1.04
282331,5.29,-3.71,32.41,0.91,8.73,1.09
282366,2.08,-4.84,33.04,1.08,8.73,1.22
282401,-1.05,-4.44,31.78,1.10,8.73,1.34
282436,-4.19,-5.34,29.52,1.04,8.73,1.49
282471,-6.09,-4.08,26.79,1.00,8.73,1.56
282506,-6.91,-4.19,22.80,0.96,8.73,1.60
282541,-7.69,-2.88,19.45,0.92,8.73,1.60
282576,-5.91,-1.81,16.91,0.94,8.73,1.66
282612,-4.14,-2.09,14.82,0.95,8.73,1.68
282646,-1.89,-1.66,13.14,0.93,8.73,1.70
282681,2.21,-2.70,12.12,0.91,8.73,1.70
282716,5.86,-1.37,12.33,0.91,8.73,1.67
282751,7.47,-1.69,13.03,0.93,8.73,1.66
282786,10.05,-2.30,14.77,0.97,8.73,1.66
282822,10.68,-3.11,16.76,0.99,8.73,1.70
282856,11.53,-3.42,19.18,1.00,8.73,1.75
282891,11.77,-4.77,22.83,0.99,8.73,1.80
282926,11.20,-5.08,26.16,0.95,8.73,1.85
282961,9.82,-6.31,28.40,0.89,8.73,1.86
282997,7.08,-6.27,30.22,0.84,8.73,1.86
283031,4.00,-6.59,30.55,0.76,8.73,1.89
283066,0.73,-6.15,31.14,0.68,8.73,1.86
283101,-2.01,-5.46,30.99,0.62,8.73,1.80
283136,-4.47,-5.44,28.85,0.61,8.73,1.74
283171,-5.72,-4.12,26.10,0.67,8.73,1.68
283206,-7.40,-3.27,23.95,0.78,8.73,1.66
283241,-7.10,-3.23,20.53,0.88,8.73,1.68
283276,-6.48,-3.18,17.47,1.00,8.73,1.81
283311,-4.71,-4.48,14.90,1.06,8.73,1.97
283346,-2.33,-4.93,12.28,1.02,8.73,2.08
283381,-0.09,-4.26,11.45,0.89,8.73,2.06
283416,3.53,-3.09,12.02,0.87,8.73,1.89
283451,7.63,0.24,13.97,0.98,8.73,1.72
283486,10.59,-0.64,16.64,1.20,8.73,1.62
283521,12.37,-3.52,18.14,1.31,8.73,1.63
283556,12.87,-4.38,20.91,1.23,8.73,1.74
283591,12.04,-7.19,23.74,1.08,8.73,1.77
283626,10.87,-6.24,26.66,0.91,8.73,1.70
283661,8.71,-5.19,29.18,0.82,8.73,1.61
283696,6.74,-5.77,30.93,0.82,8.73,1.66
283731,3.72,-6.12,31.34,0.78,8.73,1.77
283766,0.45,-6.48,30.25,0.68,8.73,1.93
283801,-2.66,-5.35,29.58,0.51,8.73,1.97
283836,-4.78,-4.71,28.00,0.41,8.73,1.86
283871,-5.14,-2.70,25.39,0.40,8.73,1.75
283906,-7.49,-2.48,22.97,0.50,8.73,1.65
283941,-8.91,-1.40,21.26,0.58,8.73,1.59
283976,-5.96,-1.59,18.33,0.72,8.73,1.64
284011,-5.16,-2.42,15.45,0.79,8.73,1.68
284046,-2.71,-1.93,13.32,0.78,8.73,1.62
284081,1.17,-0.87,13.45,0.81,8.73,1.49
284116,4.47,-0.54,12.52,0.90,8.73,1.36
284151,7.63,0.29,14.00,1.05,8.73,1.31
284186,9.67,-2.18,16.08,1.13,8.73,1.30
284221,11.48,-3.94,18.17,1.02,8.73,1.36
284256,12.77,-7.08,21.97,0.82,8.73,1.32
284291,12.19,-6.09,25.52,0.57,8.73,1.11
284326,9.91,-4.84,28.10,0.54,8.73,0.84
284366,8.72,-2.87,30.67,0.72,8.73,0.63
284401,5.54,-3.48,30.98,0.97,8.73,0.69
284436,2.57,-3.74,32.36,1.21,8.73,0.86
284471,-1.07,-4.68,32.73,1.27,8.73,1.16
284506,-3.80,-5.01,30.39,1.19,8.73,1.43
284541,-5.93,-4.93,28.58,1.09,8.73,1.62
284576,-7.09,-3.05,26.35,1.09,8.73,1.71
284611,-7.26,-4.55,22.98,1.13,8.73,1.81
284646,-6.46,-5.04,19.24,1.16,8.73,2.01
284682,-5.68,-5.06,16.56,1.13,8.73,2.25
284716,-2.28,-7.91,14.78,1.02,8.73,2.47
284751,1.09,-8.91,13.46,0.78,8.73,2.71
284786,3.99,-7.76,13.63,0.50,8.73,2.68
284821,8.47,-5.91,14.82,0.36,8.73,2.45
284856,11.22,-4.07,18.14,0.37,8.73,2.19
284891,12.62,-2.60,21.57,0.54,8.73,1.98
284926,13.28,-3.18,24.31,0.73,8.73,1.92
284961,12.22,-2.29,26.33,0.90,8.73,2.03
284996,10.64,-4.30,28.19,0.98,8.73,2.14
285031,9.13,-6.66,29.97,0.93,8.73,2.18
285066,7.15,-5.78,32.08,0.80,8.73,1.99
285101,3.85,-4.96,32.50,0.78,8.73,1.68
285136,0.19,-3.35,32.48,0.91,8.73,1.38
285171,-3.51,-3.56,31.08,1.03,8.73,1.35
285206,-6.00,-5.09,29.87,1.06,8.73,1.43
285241,-5.96,-3.86,26.09,0.99,8.73,1.52
285276,-6.72,-2.53,22.51,0.92,8.73,1.50
285311,-4.83,-0.67,19.50,0.91,8.73,1.45
285347,-5.18,0.09,17.37,0.94,8.73,1.40
285381,-3.43,0.04,15.41,0.99,8.73,1.37
285416,0.52,-0.36,14.31,1.09,8.73,1.43
285451,5.31,-1.49,13.11,1.12,8.73,1.53
285486,8.80,-2.36,15.19,1.17,8.73,1.63
285521,10.80,-2.41,16.84,1.14,8.73,1.69
285556,12.05,-3.12,18.69,1.17,8.73,1.72
285591,11.90,-4.80,21.42,1.20,8.73,1.76
285626,11.86,-4.74,24.13,1.20,8.73,1.82
285661,10.58,-5.74,26.78,1.12,8.73,1.84
285696,8.43,-6.13,29.73,1.01,8.73,1.76
285731,6.83,-6.01,32.15,0.95,8.73,1.61
285766,3.61,-6.50,32.92,1.03,8.73,1.43
285801,0.45,-5.47,33.90,1.23,8.73,1.31
285836,-1.91,-4.86,31.68,1.36,8.73,1.33
285871,-4.52,-5.96,29.19,1.35,8.73,1.48
285906,-5.60,-5.58,25.90,1.24,8.73,1.64
285941,-8.37,-5.21,23.44,1.07,8.73,1.69
285976,-7.18,-2.76,20.88,0.91,8.73,1.69
286011,-5.70,-2.79,17.90,0.84,8.73,1.64
286046,-3.00,-0.93,15.34,0.83,8.73,1.60
286081,0.03,-2.53,13.46,0.87,8.73,1.67
286116,3.76,-2.54,13.67,0.84,8.73,1.75
286151,6.24,-3.20,14.44,0.80,8.73,1.78
286186,8.60,-2.99,15.62,0.83,8.73,1.71
286221,11.08,-1.10,17.98,0.94,8.73,1.66
286256,12.48,-1.68,21.13,1.10,8.73,1.66
286291,12.01,-4.19,24.07,1.21,8.73,1.73
286326,11.77,-4.80,26.84,1.22,8.73,1.82
286362,9.74,-7.22,29.04,1.14,8.73,1.80
286401,7.03,-5.54,31.55,1.08,8.73,1.63
286436,4.07,-5.11,33.40,1.16,8.73,1.43
286471,0.31,-4.79,34.84,1.39,8.73,1.32
286506,-2.43,-5.08,32.76,1.67,8.73,1.30
286541,-4.26,-4.89,29.25,1.95,8.73,1.42
286576,-6.48,-7.13,26.65,2.14,8.73,1.71
286611,-8.14,-8.11,24.54,2.13,8.73,2.04
286646,-6.92,-7.98,21.22,1.92,8.73,2.31
286681,-6.91,-7.21,17.82,1.66,8.73,2.40
286716,-4.46,-5.68,15.37,1.36,8.73,2.30
286751,-0.06,-3.28,15.66,1.23,8.73,2.20
286786,3.11,-2.17,16.35,1.18,8.73,2.01
286821,7.49,-1.84,17.24,1.20,8.73,1.95
286856,10.67,-4.00,17.84,1.20,8.73,1.95
286891,12.30,-6.38,20.75,1.10,8.73,1.96
286926,12.65,-5.86,24.80,0.94,8.73,1.94
286961,11.77,-5.56,27.33,0.83,8.73,1.85
286996,11.90,-7.49,29.76,0.77,8.73,1.74
287031,8.99,-5.16,32.40,0.71,8.73,1.48
287066,5.86,-5.35,33.61,0.80,8.73,1.24
287101,2.65,-4.07,35.02,1.04,8.73,1.03
287136,-0.49,-4.11,34.23,1.26,8.73,1.01
287171,-3.87,-4.11,32.51,1.41,8.73,1.12
287206,-5.66,-4.68,28.57,1.39,8.73,1.29
287240,-5.83,-3.96,24.58,1.21,8.73,1.37
287275,-7.13,-1.54,22.00,1.01,8.73,1.30
287310,-4.93,-0.11,19.72,0.91,8.73,1.16
287345,-1.14,2.70,16.99,0.96,8.73,0.96
287380,0.31,3.71,13.71,1.16,8.73,0.81
287415,2.19,3.10,14.16,1.41,8.73,0.80
287450,3.64,4.01,14.07,1.69,8.73,0.86
287485,6.72,3.58,15.78,2.01,8.73,1.01
287520,10.33,-1.70,18.20,2.20,8.73,1.32
287555,12.93,-5.49,19.99,2.11,8.73,1.68
287590,13.16,-7.52,22.97,1.82,8.73,1.97
287625,11.82,-7.90,25.52,1.53,8.73,2.09
287660,10.67,-9.02,28.59,1.32,8.73,2.12
287695,8.00,-8.48,31.05,1.13,8.73,2.09
287730,5.22,-8.87,33.49,0.97,8.73,2.04
287765,2.88,-7.13,33.87,0.83,8.73,1.93
287800,-0.73,-6.58,33.56,0.83,8.73,1.82
287835,-3.27,-7.16,29.51,0.83,8.73,1.75
287870,-6.15,-5.69,27.86,0.74,8.73,1.73
287905,-6.17,-5.25,24.45,0.56,8.73,1.68
287940,-8.30,-3.84,22.29,0.37,8.73,1.51
287975,-9.05,-0.97,21.50,0.37,8.73,1.38
288010,-6.38,-1.40,18.84,0.48,8.73,1.28
288045,-4.29,-1.73,16.96,0.63,8.73,1.41
288080,1.68,-5.54,16.12,0.66,8.73,1.70
288115,8.60,-9.61,15.24,0.51,8.73,2.00
288150,10.93,-11.24,16.63,0.12,8.73,2.19
288185,10.38,-8.76,18.25,-0.18,8.73,2.07
288220,9.96,-2.49,20.28,-0.05,8.73,1.82
288255,10.50,-1.66,23.69,0.39,8.73,1.76
288290,11.82,-2.27,27.75,0.89,8.73,2.03
288325,11.15,-6.85,30.34,1.13,8.73,2.48
288361,7.74,-9.28,30.57,1.02,8.73,2.76
288396,5.49,-9.77,32.28,0.73,8.73,2.76
288435,1.41,-9.66,33.69,0.44,8.73,2.55
288470,-1.19,-6.98,34.66,0.34,8.73,2.23
288505,-4.86,-3.76,32.39,0.36,8.73,1.97
288540,-5.61,-6.70,28.78,0.23,8.73,1.82
288575,-6.79,-2.51,27.74,0.19,8.73,1.62
288610,-7.51,-0.10,25.18,0.23,8.73,1.33
288645,-7.33,2.31,22.61,0.33,8.73,1.00
288680,-3.27,4.51,20.17,0.65,8.73,0.82
288715,-0.59,1.69,17.64,1.03,8.73,0.80
288750,4.53,5.43,19.63,1.38,8.73,0.81
288785,8.61,-0.48,20.63,1.70,8.73,1.08
288820,12.49,0.82,22.41,2.00,8.73,1.38
288855,12.17,-4.26,25.46,2.18,8.73,1.73
288890,13.29,-7.87,28.00,2.16,8.73,2.18
288925,12.25,-9.77,32.03,2.14,8.73,2.67
288960,9.52,-11.55,35.98,1.65,8.73,2.89
288995,6.34,-14.47,38.95,1.27,8.73,2.92
289030,2.92,-12.45,40.57,0.93,8.73,2.79
289065,0.05,-13.03,37.83,0.75,8.73,2.64
289100,-3.97,-9.28,35.94,0.42,8.73,2.53
289135,-6.27,-7.37,34.66,0.06,8.73,2.31
289170,-6.55,-4.44,31.57,0.17,8.73,2.05
289204,-5.39,-5.43,27.19,0.33,8.73,1.81
289240,-3.07,-1.63,24.22,0.58,8.73,1.65
289274,-0.61,-1.87,21.78,0.65,8.73,1.46
289309,1.84,-1.16,20.85,0.89,8.73,1.29
289344,7.58,-0.46,19.45,1.24,8.73,1.16
289378,11.74,2.89,23.87,1.63,8.73,1.23
289413,14.34,-2.04,25.97,1.89,8.73,1.48
289448,12.31,-4.51,27.45,1.98,8.73,1.88
289483,12.63,-8.95,31.96,2.04,8.73,2.29
289518,10.81,-13.26,35.99,1.87,8.73,2.67
289553,8.44,-12.52,39.05,1.49,8.73,2.72
289588,4.84,-12.26,39.91,1.13,8.73,2.63
289623,0.50,-11.31,39.75,0.81,8.73,2.66
289658,-2.37,-11.56,37.29,0.57,8.73,2.55
289693,-5.77,-9.56,35.45,0.16,8.73,2.38
289728,-7.02,-5.33,32.70,-0.18,8.73,2.02
289763,-7.81,-1.46,29.68,-0.30,8.73,1.50
289798,-6.43,4.67,27.19,-0.18,8.73,1.05
289833,-2.55,4.64,25.96,0.27,8.73,0.77
289868,0.73,3.78,23.59,0.82,8.73,0.89
289903,7.86,-0.83,24.85,1.10,8.73,1.23
289938,12.26,-4.97,25.66,1.15,8.73,1.53
289973,15.07,-6.87,28.81,1.11,8.73,1.69
290008,14.65,-7.02,30.49,1.26,8.73,1.78
290043,13.03,-9.87,31.35,1.48,8.73,1.93
290078,11.17,-7.23,34.68,1.60,8.73,2.29
290113,7.98,-11.70,37.92,1.36,8.73,2.52
290148,5.56,-11.16,40.22,1.10,8.73,2.51
290183,1.72,-11.88,37.17,0.89,8.73,2.34
290218,-2.71,-8.00,36.07,0.83,8.73,2.20
290253,-4.59,-8.67,32.53,0.57,8.73,2.11
290288,-6.46,-7.69,30.29,0.37,8.73,1.92
290323,-5.84,-2.45,27.18,0.10,8.73,1.55
290359,-6.25,-0.82,24.40,-0.23,8.73,0.94
290393,-3.62,6.65,22.38,0.03,8.73,0.38
290428,1.78,10.22,23.03,0.63,8.73,0.41
290468,6.98,4.40,21.18,1.25,8.73,0.67
290503,4.65,-1.14,23.15,1.42,8.73,1.12
290538,11.36,-3.19,26.14,1.51,8.73,1.48
290573,14.97,-8.50,32.93,1.57,8.73,1.79
290608,15.67,-8.79,35.53,1.79,8.73,2.12
290643,12.67,-9.61,37.70,1.79,8.73,2.52
290678,8.96,-13.25,39.01,1.60,8.73,2.86
290713,6.19,-13.25,41.46,1.22,8.73,2.99
290748,1.83,-14.24,42.51,0.74,8.73,2.94
290783,-1.82,-9.66,41.61,0.40,8.73,2.84
290818,-5.21,-9.13,39.01,0.10,8.73,2.51
290853,-7.12,-4.25,36.40,-0.14,8.73,2.13
290888,-4.65,-0.68,31.08,-0.20,8.73,1.65
290923,-3.22,1.92,26.40,-0.01,8.73,1.17
290958,-3.01,4.34,23.45,0.35,8.73,0.72
290993,1.26,4.86,25.48,0.85,8.73,0.62
291028,4.37,1.34,23.28,1.34,8.73,0.81
291063,9.16,-0.84,25.55,1.70,8.73,1.06
291098,14.05,-6.46,31.50,1.82,8.73,1.45
291133,15.62,-9.79,34.83,1.76,8.73,1.74
291168,13.97,-9.66,38.35,1.67,8.73,1.97
291203,10.40,-11.04,39.43,1.56,8.73,2.16
291238,6.85,-10.99,40.52,1.44,8.73,2.28
291273,3.61,-12.48,40.26,1.19,8.73,2.44
291308,0.19,-10.06,41.08,0.98,8.73,2.58
291343,-2.81,-12.13,36.98,0.61,8.73,2.59
291378,-4.35,-7.72,33.46,0.33,8.73,2.43
291413,-7.25,-6.37,31.55,0.08,8.73,2.10
291448,-6.09,-1.43,28.38,0.03,8.73,1.76
291483,-4.49,-0.74,24.08,0.19,8.73,1.53
291519,-0.68,-0.51,21.70,0.41,8.73,1.44
291553,2.43,-0.19,19.01,0.55,8.73,1.42
291588,8.18,-3.64,20.82,0.76,8.73,1.48
291623,11.60,-2.14,21.73,0.82,8.73,1.49
291658,12.76,-5.45,25.48,0.95,8.73,1.53
291693,13.88,-6.54,27.39,1.00,8.73,1.55
291728,13.12,-5.04,31.17,1.04,8.73,1.61
291763,13.03,-8.31,33.25,1.18,8.73,1.74
291798,8.70,-6.66,35.34,1.17,8.73,1.89
291833,5.31,-8.59,36.22,1.11,8.73,2.08
291868,3.03,-8.56,36.06,0.89,8.73,2.23
291903,-0.85,-9.51,34.91,0.67,8.73,2.31
291938,-3.79,-7.60,33.76,0.49,8.73,2.19
291973,-6.05,-5.55,32.11,0.31,8.73,2.06
292008,-7.47,-5.16,29.06,0.28,8.73,1.88
292043,-8.92,-3.22,26.61,0.32,8.73,1.72
292078,-6.12,-2.29,22.76,0.51,8.73,1.70
292113,-1.79,-3.24,18.95,0.65,8.73,1.78
292148,3.67,-5.11,18.39,0.73,8.73,1.89
292183,7.11,-3.95,18.41,0.74,8.73,1.85
292219,8.81,-3.90,18.87,0.79,8.73,1.83
292253,9.83,-3.14,20.46,0.99,8.73,1.73
292288,12.28,-3.05,22.66,1.23,8.73,1.75
292324,12.84,-2.84,27.15,1.50,8.73,1.92
292358,12.58,-5.67,29.49,1.79,8.73,2.31
292393,10.46,-8.86,31.96,1.77,8.73,2.70
292428,7.52,-11.70,35.15,1.49,8.73,2.89
292463,5.45,-11.25,36.42,1.18,8.73,2.86
292503,0.99,-8.88,38.19,0.97,8.73,2.56
292538,-3.04,-7.67,35.79,1.09,8.73,2.32
292573,-4.05,-7.48,32.09,1.34,8.73,2.19
292608,-5.89,-8.73,29.49,1.58,8.73,2.26
292643,-5.85,-10.23,24.64,1.54,8.73,2.40
292678,-4.16,-10.44,21.47,1.32,8.73,2.49
292713,-2.68,-8.17,18.26,1.09,8.73,2.45
292748,-0.13,-4.70,17.49,0.91,8.73,2.24
292782,2.52,-2.16,16.57,0.92,8.73,1.92
292817,5.38,-0.02,17.50,1.10,8.73,1.64
292853,8.71,0.94,18.86,1.37,8.73,1.54
292887,11.50,-1.96,21.41,1.65,8.73,1.65
292922,13.15,-4.16,24.67,1.73,8.73,1.85
292957,12.73,-6.79,28.00,1.66,8.73,2.09
292992,12.51,-8.49,30.73,1.55,8.73,2.26
293026,9.45,-9.26,32.44,1.34,8.73,2.26
293061,6.01,-9.15,34.96,1.15,8.73,2.19
293096,4.36,-8.48,36.77,1.09,8.73,2.08
293130,0.10,-7.19,37.25,1.19,8.73,1.93
293165,-2.20,-6.66,34.49,1.25,8.73,1.90
293200,-4.77,-7.61,31.95,1.34,8.73,1.94
293235,-6.56,-7.25,27.81,1.33,8.73,2.00
293269,-6.78,-8.13,24.74,1.22,8.73,2.12
293304,-5.40,-6.86,22.24,1.05,8.73,2.11
293340,-3.34,-4.07,19.49,0.88,8.73,1.98
293374,-0.76,-3.30,17.89,0.82,8.73,1.78
293409,3.48,-2.32,17.80,0.81,8.73,1.70
293443,7.18,-1.11,17.37,0.88,8.73,1.62
293478,9.62,-3.44,17.61,0.97,8.73,1.58
293513,11.42,-4.27,21.11,0.96,8.73,1.59
293547,12.28,-4.28,23.55,0.96,8.73,1.62
293582,12.32,-4.64,26.93,0.95,8.73,1.64
293617,11.88,-6.56,30.14,0.97,8.73,1.62
293652,9.67,-5.96,32.95,0.95,8.73,1.56
293687,7.17,-5.18,35.28,0.99,8.73,1.48
293722,3.93,-6.30,36.33,1.07,8.73,1.48
293757,0.45,-6.29,36.96,1.08,8.73,1.67
293792,-2.73,-5.71,34.82,1.07,8.73,1.82
293827,-5.24,-5.77,32.72,0.98,8.73,1.87
293862,-4.53,-3.74,28.08,0.99,8.73,1.88
293897,-6.17,-4.74,24.42,0.99,8.73,1.87
293932,-6.05,-3.73,22.30,0.98,8.73,1.91
293967,-3.47,-4.06,19.27,0.96,8.73,2.00
294002,-0.30,-2.99,17.68,0.94,8.73,2.02
294037,2.03,-4.69,16.78,0.87,8.73,2.05
294072,5.78,-4.82,17.38,0.77,8.73,2.04
294107,8.42,-6.23,17.74,0.69,8.73,2.00
294142,10.88,-5.61,21.60,0.53,8.73,1.95
294177,12.24,-5.72,25.13,0.52,8.73,1.85
294212,12.62,-4.68,28.75,0.54,8.73,1.73
294247,11.52,-6.37,32.43,0.63,8.73,1.67
294282,9.24,-4.39,35.17,0.70,8.73,1.61
294317,5.65,-7.02,36.11,0.78,8.73,1.59
294352,2.99,-5.25,37.50,0.87,8.73,1.61
294387,-0.33,-6.52,36.88,0.87,8.73,1.65
294422,-2.72,-4.37,35.61,0.90,8.73,1.68
294457,-5.96,-5.26,33.15,0.88,8.73,1.72
294492,-6.25,-2.87,30.03,0.87,8.73,1.70
294532,-5.82,-3.25,25.41,0.77,8.73,1.58
294567,-3.73,-0.63,22.17,0.80,8.73,1.52
294602,-2.03,-0.40,19.09,0.91,8.73,1.47
294637,1.71,-0.79,18.22,1.03,8.73,1.59
294671,3.96,-1.90,17.58,1.09,8.73,1.65
294706,6.64,-2.24,18.87,1.18,8.73,1.69
294741,10.15,-1.51,19.23,1.31,8.73,1.72
294775,12.13,-5.32,22.10,1.33,8.73,1.85
294810,12.82,-5.35,26.83,1.31,8.73,1.92
294845,12.96,-5.57,30.42,1.37,8.73,2.07
294879,12.23,-6.75,32.86,1.36,8.73,2.22
294914,8.27,-7.97,34.93,1.28,8.73,2.30
294950,4.98,-8.18,35.48,1.13,8.73,2.30
294984,1.26,-8.26,37.00,1.03,8.73,2.16
295019,-1.40,-4.26,36.97,1.09,8.73,1.97
295054,-1.71,-6.56,30.89,1.22,8.73,1.93
295089,-4.89,-4.82,28.08,1.43,8.73,1.93
295124,-6.83,-7.21,24.94,1.47,8.73,2.06
295159,-7.55,-7.24,23.22,1.35,8.73,2.24
295194,-4.59,-9.20,19.63,1.21,8.73,2.36
295229,-2.85,-5.96,17.99,1.04,8.73,2.33
295264,1.93,-4.45,17.20,0.93,8.73,2.16
295299,5.83,-3.80,17.94,0.86,8.73,2.01
295334,8.98,-0.77,17.90,0.90,8.73,1.90
295369,10.66,-4.82,19.86,0.95,8.73,1.85
295404,11.49,-5.18,23.27,0.91,8.73,1.82
295439,12.73,-5.69,26.62,0.84,8.73,1.78
295474,12.54,-6.45,30.61,0.80,8.73,1.69
295509,10.90,-6.46,33.68,0.78,8.73,1.53
295544,8.46,-4.81,34.99,0.84,8.73,1.42
295579,4.86,-5.22,34.39,0.96,8.73,1.39
295614,1.00,-5.48,34.97,1.05,8.73,1.48
295649,-1.58,-5.34,34.24,1.03,8.73,1.63
295684,-4.20,-5.87,32.63,0.96,8.73,1.76
295719,-6.80,-4.41,30.40,1.01,8.73,1.77
295754,-6.06,-6.31,25.06,1.00,8.73,1.80
295789,-5.25,-2.04,22.06,1.01,8.73,1.80
295824,-3.86,-3.29,19.49,1.05,8.73,1.90
295859,-3.31,-3.73,17.14,1.04,8.73,2.02
295894,-0.72,-2.85,16.47,1.00,8.73,1.99
295929,2.09,-3.11,16.34,0.91,8.73,1.90
295964,6.51,-4.08,16.66,0.87,8.73,1.87
295999,10.14,-4.31,19.87,0.76,8.73,1.91
296034,12.22,-6.08,21.88,0.61,8.73,1.88
296069,12.79,-5.66,25.22,0.48,8.73,1.77
296104,12.83,-4.64,27.69,0.40,8.73,1.62
296139,11.02,-4.42,30.54,0.46,8.73,1.49
296174,8.56,-3.96,32.28,0.58,8.73,1.54
296209,5.62,-5.33,34.21,0.75,8.73,1.70
296244,2.16,-4.87,35.65,0.66,8.73,1.80
296279,-0.99,-5.14,35.32,0.58,8.73,1.87
296315,-3.38,-3.56,33.84,0.63,8.73,1.80
296350,-5.75,-2.82,30.94,0.69,8.73,1.67
296384,-5.96,-3.28,27.09,0.86,8.73,1.62
296419,-6.70,-3.67,23.62,0.92,8.73,1.65
296454,-5.42,-2.63,20.63,1.04,8.73,1.73
296489,-4.27,-1.89,17.95,1.07,8.73,1.76
296524,-1.32,-2.58,15.92,1.11,8.73,1.75
296564,1.82,-2.92,15.91,1.09,8.73,1.78
296600,6.72,-2.71,16.48,1.13,8.73,1.75
296634,10.73,-2.06,18.15,1.28,8.73,1.65
296669,11.84,-2.47,20.38,1.35,8.73,1.70
296704,13.12,-3.31,22.65,1.34,8.73,1.82
296738,12.26,-5.43,25.65,1.31,8.73,1.92
296773,11.83,-6.26,27.67,1.19,8.73,2.01
296808,10.35,-7.72,29.43,1.05,8.73,2.00
296843,7.41,-6.91,31.11,0.94,8.73,1.98
296878,3.95,-7.49,32.59,0.86,8.73,2.01
296913,0.31,-6.56,33.42,0.73,8.73,2.03
296947,-1.79,-5.45,32.08,0.62,8.73,1.98
296982,-4.04,-6.85,30.47,0.57,8.73,1.92
297017,-4.54,-3.87,28.02,0.49,8.73,1.85
297052,-7.54,-3.71,24.97,0.50,8.73,1.75
297087,-7.97,-2.28,22.33,0.49,8.73,1.67
297122,-6.23,-1.91,18.99,0.66,8.73,1.75
297157,-3.73,-2.91,16.43,0.78,8.73,1.89
297192,-0.96,-5.49,14.04,0.77,8.73,2.03
297227,3.37,-5.18,13.96,0.65,8.73,2.14
297262,6.62,-5.19,14.19,0.54,8.73,2.06
297297,9.07,-3.57,16.35,0.57,8.73,1.91
297333,11.36,-2.83,18.92,0.67,8.73,1.78
297367,12.27,-4.07,21.42,0.81,8.73,1.74
297403,12.32,-4.58,24.76,0.88,8.73,1.76
297437,11.37,-6.30,27.56,0.93,8.73,1.84
297472,9.16,-6.03,30.32,0.92,8.73,1.88
297508,7.05,-7.28,33.09,0.87,8.73,1.88
297542,4.59,-6.61,33.73,0.84,8.73,1.87
297577,0.72,-7.39,34.45,0.88,8.73,1.87
297612,-2.15,-5.85,32.21,0.89,8.73,1.79
297646,-4.09,-5.47,29.81,0.90,8.73,1.77
297681,-5.03,-3.79,26.63,0.88,8.73,1.75
297716,-7.17,-4.01,24.26,0.86,8.73,1.71
297751,-7.08,-2.01,21.96,0.82,8.73,1.69
297786,-6.08,-2.01,19.02,0.79,8.73,1.60
297821,-3.43,-1.08,16.66,0.82,8.73,1.49
297856,0.53,-0.70,16.20,0.89,8.73,1.48
297891,5.46,-0.83,16.03,0.97,8.73,1.47
297926,7.79,-1.37,14.95,1.11,8.73,1.48
297961,10.19,-3.00,17.78,1.17,8.73,1.57
297996,11.97,-2.98,20.49,1.26,8.73,1.65
298032,11.74,-4.29,23.60,1.29,8.73,1.74
298066,11.50,-5.62,26.30,1.30,8.73,1.86
298101,11.43,-7.03,29.67,1.26,8.73,1.91
298136,9.01,-7.51,32.62,1.18,8.73,1.90
298171,5.26,-7.11,33.88,1.11,8.73,1.89
298206,2.82,-6.47,35.37,1.13,8.73,1.80
298241,-0.13,-6.30,34.73,1.21,8.73,1.74
298276,-2.94,-6.23,32.54,1.29,8.73,1.75
298311,-5.65,-5.25,29.81,1.37,8.73,1.80
298347,-6.40,-5.48,25.69,1.40,8.73,1.91
298381,-6.42,-6.22,22.11,1.32,8.73,2.00
298416,-3.97,-5.84,19.50,1.20,8.73,2.08
298451,-2.53,-5.10,16.89,1.06,8.73,2.07
298486,-1.28,-3.24,16.00,0.93,8.73,1.99
298521,0.46,-3.61,15.40,0.87,8.73,1.93
298556,4.26,-4.16,15.75,0.82,8.73,1.91
298596,8.67,-4.98,17.51,0.78,8.73,1.90
298631,11.08,-6.03,20.20,0.69,8.73,1.87
298666,13.32,-5.15,23.29,0.57,8.73,1.79
298701,13.51,-5.59,26.12,0.59,8.73,1.70
298736,11.61,-4.73,29.09,0.63,8.73,1.66
298771,9.95,-5.54,31.54,0.72,8.73,1.69
298806,7.74,-5.62,34.18,0.77,8.73,1.82
298841,4.32,-6.56,34.40,0.75,8.73,1.83
298876,0.42,-6.89,34.96,0.75,8.73,1.86
298911,-1.88,-5.15,32.27,0.71,8.73,1.83
298946,-4.73,-4.47,31.08,0.67,8.73,1.82
298981,-4.47,-3.10,27.18,0.63,8.73,1.76
299016,-5.90,-2.92,23.74,0.62,8.73,1.69
299051,-6.20,-1.71,21.57,0.77,8.73,1.66
299086,-5.27,-2.40,19.30,0.87,8.73,1.72
299121,-2.51,-2.41,17.04,0.93,8.73,1.76
299156,0.50,-2.80,16.03,0.97,8.73,1.82
299191,4.01,-2.21,16.07,1.00,8.73,1.78
299226,6.83,-2.50,16.78,1.04,8.73,1.74
299261,10.38,-3.46,19.12,1.11,8.73,1.75
299296,12.68,-4.69,21.94,1.16,8.73,1.76
299331,12.84,-5.28,24.61,1.15,8.73,1.81
299367,12.50,-5.73,27.09,1.12,8.73,1.85
299401,11.37,-7.22,29.98,0.99,8.73,1.83
299436,9.25,-6.25,32.84,0.94,8.73,1.75
299471,5.91,-5.97,33.69,0.90,8.73,1.69
299506,2.48,-6.51,33.97,0.88,8.73,1.75
299541,-0.34,-5.93,32.80,0.89,8.73,1.78
299576,-3.80,-5.06,32.02,0.86,8.73,1.76
299611,-5.14,-5.01,29.62,0.77,8.73,1.78
299646,-6.82,-4.77,26.48,0.74,8.73,1.77
299681,-7.49,-3.02,23.42,0.66,8.73,1.69
299716,-5.89,-2.50,20.50,0.69,8.73,1.65
299751,-4.03,-1.99,17.17,0.72,8.73,1.66
299786,-2.20,-1.73,15.32,0.77,8.73,1.70
299821,1.07,-3.02,15.42,0.77,8.73,1.70
299856,4.40,-2.98,14.30,0.73,8.73,1.71
299891,8.66,-3.78,15.74,0.73,8.73,1.67
299926,11.51,-4.90,18.87,0.67,8.73,1.65
299961,12.68,-6.10,22.24,0.61,8.73,1.59
299996,13.33,-5.86,25.07,0.53,8.73,1.44
300031,12.11,-5.25,27.98,0.58,8.73,1.32
300066,10.27,-4.70,30.71,0.67,8.73,1.26
300101,8.73,-3.87,33.39,0.82,8.73,1.23
300136,4.81,-4.69,33.39,0.94,8.73,1.28
300171,0.88,-6.11,33.43,1.03,8.73,1.45
300206,-1.83,-5.58,33.15,1.03,8.73,1.60
300241,-3.93,-5.09,30.84,1.04,8.73,1.65
300276,-5.25,-2.74,28.23,1.07,8.73,1.68
300311,-7.04,-2.96,25.57,1.22,8.73,1.74
300346,-8.53,-3.39,22.56,1.39,8.73,1.86
300382,-6.46,-6.05,21.05,1.36,8.73,2.05
300416,-3.36,-5.19,16.48,1.25,8.73,2.12
300451,3.53,-2.83,14.37,1.09,8.73,2.00
300486,6.02,-1.12,13.72,1.06,8.73,1.82
300521,5.84,-0.19,12.83,1.11,8.73,1.61
300556,7.13,-1.57,13.56,1.18,8.73,1.64
300591,7.92,-2.17,16.27,1.20,8.73,1.77
300631,11.18,-4.22,21.16,1.16,8.73,1.91
300666,12.83,-5.01,23.61,1.08,8.73,1.94
300701,11.57,-6.62,26.55,1.02,8.73,1.97
300735,10.11,-6.89,29.15,0.90,8.73,1.88
300770,8.49,-5.48,31.94,0.83,8.73,1.81
300805,4.83,-6.68,32.95,0.85,8.73,1.74
300840,1.48,-6.16,33.50,0.93,8.73,1.69
300876,-1.78,-5.37,33.49,0.97,8.73,1.66
300910,-3.97,-4.98,31.00,0.92,8.73,1.69
300945,-6.40,-3.42,27.51,0.91,8.73,1.69
300980,-7.13,-3.67,24.51,0.91,8.73,1.67
301015,-6.15,-3.20,21.12,0.93,8.73,1.65
301050,-6.18,-2.77,18.59,0.92,8.73,1.64
301085,-3.91,-2.12,16.03,0.93,8.73,1.59
301120,0.54,-0.42,15.28,0.96,8.73,1.48
301155,3.50,1.72,14.89,1.05,8.73,1.29
301190,6.23,1.09,15.12,1.24,8.73,1.19
301225,6.48,-0.34,14.98,1.39,8.73,1.26
301260,10.92,-2.83,19.06,1.49,8.73,1.36
301295,12.28,-5.86,21.27,1.33,8.73,1.50
301330,11.67,-6.79,23.35,0.98,8.73,1.46
301365,11.98,-6.78,26.90,0.84,8.73,1.32
301400,8.93,-5.40,29.39,0.71,8.73,1.08
301435,8.28,-4.21,32.59,0.83,8.73,0.95
301470,5.18,-4.63,33.80,1.03,8.73,1.05
301505,1.38,-5.73,34.85,1.21,8.73,1.17
301540,-1.40,-4.81,32.30,1.28,8.73,1.31
301575,-5.44,-5.53,31.21,1.29,8.73,1.46
301610,-6.70,-5.24,28.21,1.11,8.73,1.59
301645,-8.13,-4.68,25.27,0.99,8.73,1.64
301680,-5.56,-2.98,21.81,0.94,8.73,1.62
301715,-3.66,-1.90,18.03,0.93,8.73,1.60
301751,-4.03,-0.17,16.07,0.92,8.73,1.53
301785,0.06,-1.17,14.96,0.95,8.73,1.44
301820,2.57,-0.95,14.56,0.97,8.73,1.45
301855,5.13,-3.08,14.72,0.94,8.73,1.59
301890,7.18,-5.64,15.28,0.84,8.73,1.72
301925,10.58,-5.99,18.01,0.63,8.73,1.77
301960,12.20,-5.49,21.42,0.42,8.73,1.69
301995,12.08,-5.05,25.25,0.34,8.73,1.50
302030,12.30,-4.94,29.11,0.42,8.73,1.36
302065,9.51,-5.76,30.76,0.56,8.73,1.32
302100,6.94,-4.56,32.60,0.68,8.73,1.32
302135,4.06,-5.49,34.54,0.78,8.73,1.39
302170,0.64,-5.63,34.53,0.80,8.73,1.51
302205,-2.38,-6.14,32.64,0.70,8.73,1.61
302240,-4.38,-4.19,30.08,0.56,8.73,1.63
302274,-4.45,-2.52,26.65,0.28,8.73,1.55
302309,-5.78,-0.51,24.25,0.17,8.73,1.34
302345,-5.29,2.11,21.05,0.20,8.73,1.14
302379,-3.62,2.50,17.97,0.43,8.73,1.06
302414,-3.18,1.30,15.90,0.70,8.73,1.12
302449,0.43,0.00,15.25,0.88,8.73,1.29
302484,2.70,-1.66,15.17,0.94,8.73,1.43
302519,5.10,-1.44,15.32,0.96,8.73,1.51
302554,8.47,-3.26,16.13,1.01,8.73,1.58
302589,11.00,-3.61,20.03,1.09,8.73,1.61
302624,12.87,-3.78,24.07,1.13,8.73,1.65
302664,12.57,-4.89,27.38,1.12,8.73,1.70
302699,11.33,-6.89,29.98,1.11,8.73,1.73
302734,8.93,-5.89,32.45,1.00,8.73,1.66
302769,5.23,-5.83,33.29,0.96,8.73,1.52
302804,3.13,-5.80,33.74,1.04,8.73,1.44
302839,-0.32,-6.17,34.13,1.16,8.73,1.44
302874,-2.68,-5.54,31.67,1.21,8.73,1.51
302909,-6.37,-4.93,29.95,1.19,8.73,1.59
302944,-5.97,-5.06,25.78,1.11,8.73,1.70
302979,-6.33,-4.35,22.53,1.09,8.73,1.76
303014,-6.74,-3.42,20.00,1.10,8.73,1.81
303049,-3.60,-4.28,18.04,1.08,8.73,1.83
303084,-2.12,-3.41,15.41,1.01,8.73,1.78
303119,0.79,0.00,15.29,1.04,8.73,1.67
303154,5.08,-0.75,16.36,1.16,8.73,1.53
303189,8.67,1.24,16.82,1.36,8.73,1.49
303224,10.83,-0.69,19.34,1.56,8.73,1.60
303259,12.65,-4.53,22.76,1.57,8.73,1.76
303294,13.24,-6.28,25.21,1.46,8.73,1.90
303329,12.52,-7.54,28.28,1.35,8.73,1.98
303365,10.16,-7.70,30.95,1.19,8.73,2.00
303399,7.69,-7.64,33.04,1.07,8.73,1.88
303434,4.94,-6.38,33.57,1.03,8.73,1.76
303469,1.82,-6.44,33.11,1.06,8.73,1.67
303504,-0.75,-5.67,32.61,1.11,8.73,1.62
303539,-3.89,-6.13,30.06,1.16,8.73,1.61
303575,-6.20,-4.59,27.98,1.13,8.73,1.65
303609,-7.62,-6.22,24.76,1.10,8.73,1.70
303644,-8.44,-4.00,22.64,0.90,8.73,1.64
303679,-6.36,-2.21,19.61,0.78,8.73,1.52
303714,-4.25,1.08,17.51,0.75,8.73,1.29
303750,0.71,0.61,16.18,0.84,8.73,1.20
303784,2.55,1.77,15.44,1.00,8.73,1.17
303819,5.38,-0.55,15.15,1.15,8.73,1.23
303855,8.51,-1.58,16.69,1.27,8.73,1.34
303889,10.64,-3.33,20.00,1.29,8.73,1.50
303924,12.63,-4.81,23.06,1.21,8.73,1.59
303959,13.01,-5.57,25.89,1.14,8.73,1.60
303994,12.03,-6.56,28.55,1.11,8.73,1.60
304029,9.50,-6.11,30.32,1.08,8.73,1.55
304064,7.08,-6.25,32.11,1.09,8.73,1.37
304099,3.75,-4.85,32.92,1.17,8.73,1.22
304134,0.15,-3.91,33.22,1.37,8.73,1.14
304169,-2.47,-5.71,31.62,1.53,8.73,1.22
304204,-4.70,-7.66,29.43,1.47,8.73,1.47
304239,-6.40,-5.90,26.90,1.21,8.73,1.65
304274,-7.27,-5.46,24.00,0.96,8.73,1.66
304308,-7.44,-3.62,21.87,0.75,8.73,1.58
304343,-6.12,-1.53,19.29,0.70,8.73,1.50
304378,-3.62,0.39,17.48,0.73,8.73,1.42
304413,-0.20,-1.13,15.47,0.80,8.73,1.42
304448,3.06,-1.85,15.56,0.80,8.73,1.48
304483,6.14,-4.03,14.37,0.69,8.73,1.60
304518,9.34,-5.05,16.00,0.53,8.73,1.65
304553,10.50,-6.57,17.66,0.30,8.73,1.61
304588,11.63,-5.74,21.39,0.09,8.73,1.42
304623,12.67,-4.81,24.88,0.03,8.73,1.17
304658,11.78,-2.99,28.26,0.15,8.73,0.94
304698,9.38,-1.94,31.01,0.44,8.73,0.81
304733,7.08,-3.06,33.39,0.75,8.73,1.00
304768,2.78,-4.42,34.35,0.94,8.73,1.28
304803,0.11,-4.36,34.51,0.97,8.73,1.46
304838,-1.78,-3.68,33.35,1.02,8.73,1.55
304873,-4.64,-4.70,30.50,1.03,8.73,1.62
304908,-6.05,-3.69,27.05,1.15,8.73,1.68
304943,-6.57,-2.84,24.13,1.29,8.73,1.81
304978,-5.25,-3.65,20.63,1.35,8.73,1.95
305013,-2.28,-4.09,17.53,1.30,8.73,2.08
305048,-0.56,-4.92,14.70,1.20,8.73,2.11
305083,1.76,-4.55,13.66,1.07,8.73,2.14
305118,5.39,-3.40,13.68,0.98,8.73,2.10
305153,8.36,-3.08,15.16,0.94,8.73,2.09
305188,10.38,-3.38,17.31,0.90,8.73,2.05
305223,12.29,-3.48,18.84,0.97,8.73,2.00
305258,11.31,-4.07,22.84,0.98,8.73,2.03
305293,10.45,-5.49,25.90,0.98,8.73,2.02
305328,11.29,-8.20,29.24,0.91,8.73,2.03
305364,8.48,-6.83,31.34,0.76,8.73,1.91
305398,6.38,-6.62,32.71,0.69,8.73,1.84
305434,3.06,-6.17,33.60,0.75,8.73,1.77
305468,-0.34,-4.32,34.30,0.78,8.73,1.69
305503,-2.96,-4.23,31.61,0.80,8.73,1.62
305538,-4.94,-3.77,28.18,0.93,8.73,1.57
305573,-5.07,-3.82,24.11,1.03,8.73,1.59
305608,-5.88,-3.56,21.69,1.13,8.73,1.63
305643,-5.41,-2.55,19.44,1.12,8.73,1.68
305678,-5.43,-2.05,15.90,1.07,8.73,1.65
305713,-1.26,-0.26,14.91,1.08,8.73,1.51
305748,2.44,-0.10,13.43,1.11,8.73,1.31
305783,6.01,0.65,13.79,1.22,8.73,1.19
305818,8.53,-1.79,13.87,1.35,8.73,1.29
305853,10.02,-4.14,14.88,1.36,8.73,1.45
305887,11.03,-5.65,17.46,1.21,8.73,1.59
305922,10.66,-6.36,20.26,1.03,8.73,1.65
305957,12.58,-5.32,23.89,0.91,8.73,1.67
305992,11.83,-7.16,27.35,0.88,8.73,1.67
306027,8.82,-5.40,30.05,0.83,8.73,1.63
306062,6.71,-5.86,32.33,0.80,8.73,1.66
306097,3.45,-6.52,32.44,0.79,8.73,1.72
306131,0.54,-6.06,31.72,0.73,8.73,1.74
306166,-2.43,-5.43,31.11,0.69,8.73,1.65
306201,-6.30,-4.29,30.11,0.63,8.73,1.59
306236,-6.34,-5.03,27.16,0.69,8.73,1.53
306271,-7.43,-2.79,24.59,0.77,8.73,1.48
306306,-7.78,-1.85,22.01,0.86,8.73,1.44
306341,-4.88,-1.68,17.71,0.94,8.73,1.40
306377,-5.05,-1.58,15.35,0.99,8.73,1.32
306411,-1.31,0.67,14.78,1.08,8.73,1.21
306446,1.97,1.05,17.21,1.27,8.73,1.06
306481,5.52,-0.27,14.50,1.51,8.73,1.14
306516,9.06,-1.36,16.30,1.65,8.73,1.36
306551,10.26,-4.53,20.37,1.68,8.73,1.62
306586,12.28,-6.77,23.03,1.55,8.73,1.84
306621,13.59,-6.24,25.70,1.38,8.73,2.02
306656,11.59,-7.92,28.72,1.32,8.73,2.18
306691,8.45,-8.09,31.23,1.20,8.73,2.39
306731,5.66,-10.35,33.48,0.99,8.73,2.66
306766,1.77,-10.86,34.96,0.66,8.73,2.75
306801,-0.32,-10.20,34.51,0.37,8.73,2.71
306836,-5.46,-7.94,34.85,0.25,8.73,2.41
306871,-5.41,-6.25,30.83,0.32,8.73,2.12
306906,-7.06,-4.26,28.15,0.43,8.73,1.95
306941,-9.10,-2.56,25.29,0.73,8.73,1.87
306976,-3.85,-5.34,21.20,0.74,8.73,1.71
307011,-4.43,-0.03,19.20,0.73,8.73,1.39
307046,1.34,0.53,17.56,0.90,8.73,1.19
307081,3.05,2.22,16.30,1.22,8.73,0.99
307116,6.09,1.61,19.56,1.52,8.73,1.14
307151,10.04,-0.24,20.79,1.95,8.73,1.27
307186,11.61,-3.66,23.94,2.07,8.73,1.61
307221,13.78,-6.32,26.48,2.19,8.73,2.02
307256,12.03,-9.56,31.78,2.07,8.73,2.41
307291,10.93,-12.94,33.94,1.82,8.73,2.77
307326,8.38,-12.79,36.88,1.48,8.73,2.83
307361,5.50,-10.88,36.56,1.09,8.73,2.74
307396,1.28,-13.14,38.23,0.84,8.73,2.59
307431,0.24,-8.06,32.87,0.70,8.73,2.45
307466,-7.19,-9.38,34.83,0.37,8.73,2.27
307501,-5.87,-7.00,30.84,0.27,8.73,2.09
307535,-6.13,-3.29,27.06,0.15,8.73,1.77
307570,-5.87,-1.75,24.21,0.25,8.73,1.57
307605,-0.31,-1.92,20.54,0.55,8.73,1.41
307640,2.96,0.50,18.75,0.65,8.73,1.15
307675,3.49,-0.20,17.50,0.87,8.73,1.14
307710,4.81,-0.21,18.30,1.22,8.73,1.15
307745,8.47,-1.25,19.12,1.39,8.73,1.36
307780,10.89,-4.24,24.24,1.74,8.73,1.55
307815,13.68,-5.01,29.05,1.84,8.73,1.79
307850,14.63,-7.81,31.73,1.79,8.73,2.10
307885,10.54,-11.56,32.91,1.69,8.73,2.35
307920,8.09,-9.00,35.42,1.40,8.73,2.40
307955,4.85,-13.28,35.64,1.19,8.73,2.61
307990,1.60,-10.57,37.66,0.92,8.73,2.49
308025,-2.04,-9.71,36.68,0.67,8.73,2.44
308060,-4.86,-8.38,32.78,0.50,8.73,2.31
308095,-6.85,-5.81,30.92,0.25,8.73,2.04
308130,-5.63,-2.84,26.59,0.21,8.73,1.78
308165,-5.30,-2.07,23.74,0.30,8.73,1.44
308200,-2.50,2.48,21.24,0.30,8.73,1.09
308235,-0.87,0.28,18.91,0.70,8.73,1.01
308270,3.25,5.13,19.51,1.04,8.73,0.89
308305,6.07,0.77,18.07,1.34,8.73,0.98
308340,10.32,-1.39,20.40,1.78,8.73,1.13
308375,13.24,-3.55,22.34,1.87,8.73,1.44
308410,12.92,-5.47,26.45,1.70,8.73,1.75
308445,12.33,-8.88,30.39,1.63,8.73,2.15
308480,11.68,-9.90,33.65,1.50,8.73,2.39
308515,7.28,-12.61,35.00,1.28,8.73,2.67
308550,5.44,-12.39,34.98,1.02,8.73,2.77
308585,0.79,-9.77,37.40,0.53,8.73,2.78
308620,-2.21,-17.52,35.57,-0.05,8.73,2.97
308655,-5.21,-5.43,39.21,-0.49,8.73,2.83
308690,-13.29,-2.74,42.99,-0.28,8.73,2.33
308725,-5.77,-3.43,33.09,-0.05,8.73,1.88
308765,-0.36,-3.47,21.70,0.17,8.73,1.46
308800,4.01,2.01,19.55,0.42,8.73,1.02
308835,-1.51,2.40,18.32,0.76,8.73,0.80
308870,0.45,1.79,19.72,1.17,8.73,0.83
308905,5.02,2.23,22.11,1.52,8.73,1.11
308940,13.28,0.18,27.23,1.71,8.73,1.41
308975,15.28,-5.09,32.86,2.04,8.73,1.75
309010,14.96,-8.57,32.66,2.18,8.73,2.14
309045,12.48,-11.03,35.30,2.26,8.73,2.64
309080,9.13,-14.01,38.99,1.82,8.73,2.91
309115,6.50,-13.22,41.13,1.43,8.73,2.87
309150,2.20,-13.24,38.76,1.07,8.73,2.73
309185,-1.73,-7.52,36.19,0.83,8.73,2.63
309220,-5.51,-10.28,34.19,0.54,8.73,2.46
309255,-4.59,-6.81,29.07,0.28,8.73,2.29
309290,-6.17,-5.67,26.11,0.15,8.73,1.90
309325,-5.90,0.17,24.44,0.00,8.73,1.58
309360,-5.36,-1.42,21.29,0.19,8.73,1.29
309395,-0.42,1.62,20.23,0.55,8.73,1.20
309430,4.43,1.93,20.10,0.81,8.73,1.11
309465,9.53,-4.59,19.50,1.01,8.73,1.22
309500,12.32,-2.78,20.63,1.17,8.73,1.30
309535,13.44,-6.62,22.22,1.17,8.73,1.41
309570,13.10,-5.76,25.08,1.17,8.73,1.56
309605,12.28,-4.34,28.47,1.22,8.73,1.75
309640,11.02,-7.57,30.47,1.35,8.73,2.03
309675,8.00,-9.33,32.05,1.32,8.73,2.32
309710,4.53,-11.13,31.57,1.14,8.73,2.63
309745,1.53,-9.27,35.80,0.79,8.73,2.73
309780,-1.12,-11.75,34.83,0.50,8.73,2.73
309815,-3.26,-6.40,32.30,0.41,8.73,2.45
309850,-6.92,-6.42,30.74,0.42,8.73,2.18
309885,-6.27,-5.87,25.92,0.36,8.73,1.96
309920,-5.58,-4.29,21.78,0.25,8.73,1.72
309955,-5.77,-1.02,19.79,0.26,8.73,1.45
309990,-3.70,1.47,17.59,0.41,8.73,1.20
310025,1.05,2.36,15.99,0.61,8.73,0.91
310060,4.39,2.92,15.48,0.93,8.73,0.69
310095,6.64,1.53,15.61,1.24,8.73,0.76
310130,9.51,0.19,17.53,1.53,8.73,0.89
310165,11.07,-3.73,18.71,1.64,8.73,1.12
310200,13.25,-6.18,21.98,1.47,8.73,1.34
310235,12.76,-5.81,26.11,1.42,8.73,1.46
310270,10.93,-7.12,29.05,1.42,8.73,1.61
310305,9.39,-5.04,31.53,1.40,8.73,1.79
310340,5.12,-9.29,30.55,1.34,8.73,2.01
310375,3.75,-6.90,31.97,1.17,8.73,2.15
310410,0.96,-8.54,32.15,1.11,8.73,2.13
310445,-1.98,-7.26,30.21,1.07,8.73,2.08
310480,-4.70,-5.67,28.79,1.10,8.73,2.02
310515,-6.30,-6.63,25.08,1.15,8.73,2.03
310550,-6.84,-6.81,21.53,1.09,8.73,2.08
310585,-6.87,-5.62,18.37,0.98,8.73,2.09
310620,-3.68,-5.16,14.71,0.86,8.73,2.05
310655,-2.90,-4.60,12.16,0.75,8.65,1.99
310690,-0.45,-4.47,10.94,0.69,8.59,1.94
310725,1.65,-4.24,10.56,0.61,8.57,1.90
310760,3.61,-2.32,10.50,0.61,8.62,1.76
310800,6.84,-2.00,12.68,0.71,8.71,1.60
310835,9.48,-2.77,14.57,0.77,8.73,1.54
310870,11.89,-4.66,17.39,0.77,8.73,1.51
310905,12.24,-5.03,20.41,0.68,8.73,1.49
310940,11.88,-5.52,23.69,0.61,8.73,1.40
310975,10.80,-5.60,26.36,0.59,8.73,1.28
311010,8.71,-5.33,28.62,0.65,8.73,1.20
311045,5.70,-4.99,29.92,0.73,8.73,1.22
311080,3.08,-5.36,30.78,0.79,8.73,1.33
311115,-0.17,-6.08,30.85,0.75,8.73,1.54
311150,-3.22,-5.78,29.81,0.55,8.73,1.68
311185,-4.88,-4.45,27.53,0.36,8.73,1.66
311220,-5.32,-3.62,23.97,0.27,8.73,1.55
311255,-6.19,-1.95,21.11,0.18,8.73,1.38
311290,-7.48,0.90,19.24,0.13,8.73,1.16
311325,-5.50,2.84,16.45,0.28,8.73,1.05
311360,-3.04,1.59,13.59,0.43,8.73,0.93
311395,-1.49,1.91,12.15,0.62,8.73,0.95
311430,-0.57,-0.36,10.94,0.74,8.73,1.16
311464,2.94,-0.80,11.70,0.81,8.73,1.33
311499,6.91,-2.53,12.09,0.89,8.73,1.41
311534,10.39,-1.76,14.84,0.99,8.73,1.43
311569,12.32,-2.73,19.21,1.15,8.73,1.45
311604,13.64,-2.09,20.58,1.28,8.73,1.54
311639,11.91,-4.57,23.38,1.38,8.73,1.69
311674,10.39,-7.12,26.19,1.34,8.73,1.77
311709,8.84,-6.23,28.75,1.22,8.73,1.71
311744,6.34,-6.72,30.81,1.15,8.73,1.64
311779,3.13,-6.54,31.48,1.13,8.73,1.57
311815,0.31,-5.80,30.67,1.21,8.73,1.52
311849,-2.25,-5.71,28.86,1.25,8.73,1.56
311884,-4.44,-5.19,26.22,1.24,8.73,1.64
311919,-6.34,-4.89,23.78,1.26,8.64,1.72
311954,-7.56,-5.15,21.07,1.26,8.61,1.83
311989,-7.18,-5.06,18.35,1.20,8.60,1.95
312024,-6.95,-4.09,15.87,1.11,8.63,2.06
312059,-5.64,-4.17,13.73,0.97,8.68,2.08
312094,-2.89,-3.84,12.33,0.82,8.73,1.97
312129,0.21,-1.92,11.76,0.73,8.73,1.84
312164,4.24,-1.19,11.43,0.76,8.73,1.64
312199,7.80,-2.30,12.47,0.80,8.73,1.58
312234,9.83,-3.62,13.95,0.70,8.73,1.61
312269,11.61,-6.46,16.92,0.48,8.73,1.61
312304,12.37,-7.33,20.50,0.23,8.73,1.47
312339,13.02,-4.85,24.19,0.07,8.73,1.22
312375,11.38,-3.67,27.18,0.19,8.73,1.03
312409,9.15,-2.32,29.19,0.42,8.73,0.98
312444,6.23,-3.35,30.37,0.61,8.73,1.11
312479,3.58,-4.10,30.00,0.73,8.73,1.30
312514,0.62,-3.65,30.54,0.76,8.71,1.41
312549,-2.37,-3.39,29.93,0.75,8.73,1.43
312584,-3.63,-3.63,27.02,0.80,8.73,1.42
312619,-5.87,-3.55,24.74,0.73,8.70,1.44
312654,-6.76,-0.71,22.89,0.52,8.71,1.36
312689,-6.90,0.88,19.39,0.40,8.73,1.18
312724,-5.43,1.40,16.24,0.40,8.72,0.98
312759,-4.37,3.08,14.44,0.53,8.72,0.87
312794,-2.28,2.38,12.68,0.70,8.72,0.86
312834,0.63,0.58,11.38,0.85,8.70,1.01
312869,2.92,-1.70,11.08,0.87,8.72,1.24
312904,6.54,-4.13,11.52,0.74,8.73,1.49
312939,10.31,-7.39,13.55,0.43,8.73,1.64
312974,12.41,-6.58,16.77,0.08,8.73,1.60
313009,12.05,-5.58,19.42,-0.10,8.73,1.39
313044,11.83,-4.02,22.53,-0.06,8.73,1.16
313079,11.08,-2.73,26.01,0.16,8.73,1.04
313114,9.04,-2.55,27.99,0.38,8.73,1.07
313149,6.57,-3.35,29.60,0.60,8.73,1.25
313184,3.57,-4.53,30.78,0.66,8.71,1.44
313219,0.36,-5.25,30.31,0.59,8.73,1.58
313254,-2.26,-5.43,30.25,0.52,8.73,1.63
313289,-4.96,-4.48,29.32,0.41,8.73,1.65
313324,-6.82,-2.57,27.08,0.37,8.73,1.58
313359,-5.89,-1.83,23.06,0.37,8.73,1.49
313394,-7.75,-0.07,20.00,0.42,8.73,1.36
313429,-5.88,0.89,17.55,0.64,8.73,1.37
313464,-4.79,-1.62,14.64,0.80,8.73,1.47
313499,-3.08,-1.09,13.42,0.88,8.73,1.58
313534,0.27,-3.26,11.65,0.87,8.73,1.66
313568,4.36,-0.47,12.32,0.90,8.73,1.62
313603,8.16,-0.80,15.05,1.00,8.73,1.53
313638,11.41,-0.67,16.47,1.22,8.73,1.45
313673,12.71,-1.58,19.68,1.36,8.73,1.48
313708,12.36,-3.84,20.66,1.48,8.73,1.55
313743,11.58,-4.79,22.88,1.48,8.70,1.65
313778,9.64,-8.62,24.38,1.31,8.68,1.62
313813,9.65,-3.85,27.31,1.03,8.73,1.39
313848,7.35,-6.94,29.44,1.03,8.73,1.15
313883,5.08,-5.07,33.00,1.19,8.73,0.98
313918,1.50,-4.31,32.06,1.38,8.73,0.97
313953,-2.16,-5.68,31.77,1.45,8.73,1.21
313988,-5.03,-4.47,30.74,1.45,8.73,1.43
314023,-5.42,-4.72,26.89,1.51,8.73,1.57
314058,-7.81,-5.69,24.32,1.41,8.73,1.73
314093,-7.68,-4.08,21.62,1.38,8.73,1.86
314128,-5.39,-5.95,18.33,1.25,8.73,1.96
314163,-4.03,-2.80,15.57,1.08,8.73,1.96
314198,-0.37,-2.76,14.30,1.01,8.73,1.96
314233,2.44,-3.22,13.36,0.92,8.73,1.90
314268,5.12,-4.34,12.49,0.81,8.73,1.93
314303,7.68,-6.44,13.34,0.61,8.73,2.02
314338,9.29,-6.89,15.17,0.38,8.73,1.97
314373,11.39,-4.55,18.35,0.21,8.73,1.84
314408,12.07,-4.00,21.80,0.25,8.73,1.72
314443,12.29,-3.76,25.34,0.38,8.73,1.68
314478,11.38,-3.13,28.57,0.52,8.73,1.73
314513,9.63,-5.01,31.11,0.62,8.73,1.89
314548,6.23,-5.61,31.50,0.60,8.73,2.13
314583,3.25,-5.71,32.31,0.42,8.73,2.37
314618,0.06,-5.17,31.70,0.17,8.73,2.31
314653,-3.28,-2.89,31.23,0.10,8.73,2.08
314688,-5.53,-2.65,28.60,0.21,8.73,1.81
314723,-5.68,-1.51,25.49,0.50,8.73,1.65
314758,-7.04,-2.91,22.73,0.91,8.73,1.67
314793,-5.71,-4.20,19.21,1.05,8.73,1.82
314828,-3.89,-4.03,16.05,1.01,8.73,1.86
314868,-1.03,-1.05,14.00,0.92,8.73,1.65
314903,2.69,-1.23,13.05,0.91,8.73,1.46
314938,2.99,0.85,12.37,1.02,8.73,1.39
314973,8.84,1.34,17.12,1.18,8.73,1.41
315008,11.30,-3.80,16.86,1.27,8.73,1.47
315043,11.03,-4.06,18.22,1.14,8.73,1.62
315078,11.60,-4.38,21.61,1.03,8.73,1.68
315113,12.54,-6.27,24.03,0.96,8.73,1.67
315148,11.06,-5.14,27.16,0.93,8.73,1.65
315183,8.31,-5.17,29.63,0.91,8.73,1.61
315218,6.86,-5.78,31.82,0.88,8.73,1.57
315253,4.02,-6.15,32.64,0.91,8.73,1.58
315288,0.51,-6.11,32.90,0.95,8.73,1.59
315323,-2.39,-6.76,30.66,0.86,8.73,1.69
315358,-4.24,-5.21,27.88,0.78,8.73,1.69
315393,-5.79,-3.47,25.77,0.66,8.73,1.64
315428,-6.20,-2.89,22.90,0.63,8.73,1.57
315463,-6.11,-1.64,20.53,0.64,8.73,1.52
315499,-5.26,-2.37,17.52,0.75,8.73,1.56
315533,-4.47,-1.70,14.98,0.81,8.73,1.65
315568,0.36,-3.16,13.83,0.85,8.73,1.77
315603,2.31,-2.89,13.15,0.81,8.73,1.75
315638,4.75,-2.37,13.23,0.83,8.73,1.71
315673,8.20,-2.59,14.55,0.89,8.73,1.67
315708,11.01,-4.01,17.92,0.99,8.73,1.63
315743,12.20,-3.14,21.15,1.02,8.73,1.69
315778,12.19,-4.75,24.07,1.03,8.73,1.73
315813,11.62,-5.53,27.21,0.98,8.73,1.75
315848,9.98,-6.11,29.44,0.95,8.73,1.77
315883,7.77,-6.40,31.41,0.97,8.73,1.85
315918,5.10,-6.84,32.42,0.95,8.73,1.93
315953,0.97,-7.18,33.20,0.87,8.73,1.94
315988,-1.74,-5.96,32.13,0.84,8.73,1.88
316023,-4.19,-4.64,30.62,0.91,8.73,1.81
316058,-6.01,-4.03,27.49,1.01,8.73,1.80
316093,-7.00,-4.90,23.68,1.13,8.73,1.85
316128,-8.09,-4.89,20.49,1.27,8.73,1.98
316163,-6.90,-5.94,17.85,1.35,8.73,2.20
316198,-4.68,-5.90,15.06,1.21,8.73,2.30
316233,-2.68,-4.65,14.00,1.06,8.73,2.17
316268,0.30,-0.41,14.24,1.02,8.73,1.84
316303,5.67,0.54,14.92,1.17,8.73,1.61
316338,9.09,0.85,15.91,1.48,8.73,1.45
316373,11.60,-0.66,18.76,1.68,8.73,1.53
316408,12.95,-3.58,20.01,1.73,8.73,1.72
316443,13.07,-5.29,22.94,1.60,8.73,1.90
316478,11.86,-7.57,26.06,1.42,8.73,2.02
316513,10.57,-8.51,28.53,1.19,8.73,1.98
316548,8.54,-6.93,31.37,1.04,8.73,1.86
316582,5.55,-6.70,31.51,0.95,8.73,1.77
316617,2.18,-5.99,32.69,0.97,8.73,1.63
316652,-0.24,-5.51,31.97,1.05,8.73,1.61
316687,-3.33,-6.02,30.41,1.08,8.73,1.67
316722,-6.15,-5.81,29.29,1.07,8.73,1.74
316757,-6.59,-5.26,25.00,1.04,8.73,1.79
316792,-7.76,-4.46,21.39,0.98,8.73,1.82
316827,-5.91,-3.48,18.20,0.87,8.73,1.80
316862,-2.77,-3.04,15.72,0.82,8.73,1.78
316902,-0.71,-2.55,13.88,0.80,8.73,1.73
316937,0.31,-2.16,13.19,0.76,8.73,1.68
316972,4.30,-2.62,13.72,0.77,8.73,1.69
317006,8.11,-2.58,15.15,0.75,8.73,1.69
317041,11.16,-5.58,16.40,0.66,8.73,1.69
317076,11.95,-6.66,19.31,0.46,8.73,1.63
317111,12.43,-6.47,22.21,0.31,8.73,1.49
317146,12.39,-4.64,25.11,0.33,8.73,1.32
317181,11.14,-3.12,27.68,0.49,8.73,1.24
317216,8.84,-3.51,29.60,0.68,8.73,1.28
317251,5.73,-5.37,31.05,0.80,8.73,1.48
317286,2.83,-5.03,31.35,0.81,8.73,1.62
317321,-0.14,-4.78,31.32,0.78,8.73,1.64
317357,-2.46,-3.99,29.73,0.76,8.73,1.58
317391,-4.61,-3.14,28.68,0.85,8.73,1.52
317426,-6.57,-3.60,27.26,0.93,8.73,1.51
317461,-8.65,-3.30,24.62,0.94,8.73,1.49
317496,-7.95,-2.32,21.21,0.88,8.73,1.49
317530,-6.37,-0.80,17.50,0.86,8.73,1.43
317565,-3.50,1.02,15.04,0.88,8.73,1.34
317600,0.89,0.64,13.89,0.98,8.73,1.31
317635,2.51,0.90,13.52,1.10,8.73,1.25
317670,5.47,-0.14,13.36,1.22,8.73,1.31
317705,8.78,-2.02,15.52,1.32,8.73,1.41
317740,11.24,-3.47,17.86,1.33,8.73,1.54
317775,12.27,-4.52,20.00,1.31,8.73,1.64
317810,12.40,-5.72,22.22,1.24,8.73,1.70
317845,12.00,-7.04,25.05,1.16,8.73,1.70
317880,9.50,-7.08,27.98,1.00,8.73,1.60
317915,7.70,-6.68,31.48,0.93,8.73,1.38
317950,4.69,-4.57,32.33,0.93,8.73,1.20
317985,1.48,-5.11,31.38,1.12,8.73,1.25
318020,-1.44,-5.36,30.43,1.13,8.73,1.41
318055,-4.23,-6.15,30.56,0.97,8.73,1.66
318090,-6.04,-5.08,29.07,0.86,8.73,1.75
318125,-7.14,-3.11,26.66,0.87,8.73,1.78
318160,-7.16,-3.65,22.63,0.94,8.73,1.80
318195,-5.67,-3.54,18.14,1.02,8.73,1.92
318230,-3.22,-4.00,14.73,1.02,8.73,2.01
318265,0.08,-4.58,12.60,0.95,8.73,2.12
318300,1.50,-5.94,11.29,0.83,8.73,2.18
318335,3.68,-4.55,11.59,0.72,8.73,2.13
318370,6.10,-1.72,13.18,0.74,8.73,1.92
318405,10.63,-0.88,16.08,0.94,8.73,1.74
318440,12.31,-0.58,18.46,1.21,8.73,1.73
318475,13.14,-2.53,21.83,1.36,8.73,1.87
318510,13.13,-4.67,24.49,1.34,8.73,2.01
318545,11.67,-6.47,27.03,1.21,8.73,2.10
318580,9.26,-6.41,29.22,1.06,8.73,2.12
318615,6.56,-7.10,31.73,0.96,8.73,2.11
318650,3.12,-6.69,31.85,0.89,8.73,2.09
318685,-0.24,-6.85,32.52,0.86,8.73,2.01
318719,-2.81,-5.59,31.36,0.91,8.73,1.89
318754,-4.22,-3.42,28.38,1.09,8.73,1.78
318789,-5.32,-4.35,24.81,1.25,8.73,1.79
318825,-7.69,-5.75,22.24,1.36,8.73,1.92
318859,-7.35,-5.84,19.21,1.35,8.73,2.08
318894,-5.98,-5.82,16.20,1.20,8.73,2.14
318934,-2.64,-4.22,13.85,1.00,8.73,2.04
318969,0.80,-2.58,13.18,0.90,8.73,1.91
319003,3.43,-1.84,14.34,0.90,8.73,1.77
319038,5.79,-1.66,13.50,0.90,8.73,1.67
319073,9.04,-2.34,15.60,0.98,8.73,1.64
319108,10.45,-3.13,17.68,1.00,8.73,1.64
319143,12.21,-4.35,20.43,0.97,8.73,1.66
319178,12.46,-5.15,24.28,0.89,8.73,1.59
319213,11.90,-5.58,27.36,0.85,8.73,1.50
319248,9.98,-5.55,29.58,0.87,8.73,1.40
319282,7.61,-4.93,32.20,0.95,8.73,1.22
319317,4.23,-4.16,32.92,1.08,8.73,1.01
319351,0.79,-3.40,33.55,1.33,8.73,0.92
319386,-1.50,-3.69,32.63,1.59,8.73,0.97
319421,-4.07,-4.96,30.44,1.65,8.73,1.21
319456,-6.55,-5.98,27.47,1.52,8.73,1.44
319491,-6.79,-5.80,23.64,1.22,8.73,1.56
319526,-8.50,-2.43,21.76,1.02,8.73,1.54
319561,-4.93,-0.09,18.14,0.86,8.73,1.40
319597,-2.33,1.32,15.48,0.91,8.73,1.25
319631,-0.26,2.48,14.72,1.04,8.73,1.22
319666,2.86,0.43,14.45,1.15,8.73,1.28
319701,5.06,-0.55,12.90,1.20,8.73,1.38
319736,7.28,-1.95,13.37,1.19,8.73,1.52
319771,9.48,-3.68,15.85,1.14,8.73,1.65
319806,11.80,-4.15,20.07,1.02,8.73,1.70
319841,12.55,-6.02,23.58,0.91,8.73,1.68
319876,11.81,-5.61,26.59,0.86,8.73,1.63
319911,10.01,-6.49,29.23,0.77,8.73,1.50
319946,7.62,-4.33,31.11,0.79,8.73,1.36
319981,4.66,-5.06,31.26,0.85,8.73,1.34
320016,1.88,-4.57,32.44,0.90,8.73,1.41
320051,-0.84,-4.76,33.03,0.91,8.73,1.51
320086,-3.26,-3.89,31.06,0.90,8.73,1.58
320121,-6.19,-3.81,29.17,0.84,8.73,1.62
320156,-7.15,-3.17,25.74,0.81,8.73,1.64
320191,-6.75,-2.35,22.11,0.87,8.73,1.66
320226,-5.03,-3.32,19.17,0.96,8.73,1.77
320261,-4.39,-4.29,16.08,1.03,8.73,1.97
320296,-2.73,-6.72,14.09,0.98,8.73,2.24
320331,0.37,-6.53,13.87,0.80,8.73,2.39
320367,4.03,-5.38,13.71,0.67,8.73,2.29
320401,7.28,-4.21,15.79,0.62,8.73,2.15
320436,10.30,-3.94,18.12,0.67,8.73,2.00
320471,12.99,-4.59,21.15,0.67,8.73,1.94
320506,13.47,-5.17,23.95,0.67,8.73,1.89
320541,12.75,-5.45,26.25,0.68,8.73,1.87
320576,11.23,-4.97,28.63,0.68,8.73,1.89
320611,8.96,-5.44,31.10,0.72,8.73,2.02
320646,5.49,-6.52,31.41,0.69,8.73,2.26
320681,1.61,-7.59,32.73,0.49,8.73,2.43
320716,-1.48,-7.35,32.30,0.19,8.73,2.49
320751,-3.52,-4.30,29.69,0.05,8.73,2.26
320786,-5.61,-1.10,28.61,0.15,8.73,1.93
320821,-6.64,-1.94,25.59,0.50,8.73,1.73
320856,-7.66,-3.74,23.24,0.81,8.73,1.75
320890,-5.93,-3.97,20.40,0.90,8.73,1.82
320925,-5.32,-4.29,17.79,0.85,8.73,1.82
320965,-1.71,-2.17,14.71,0.82,8.73,1.74
320999,2.56,-3.01,14.03,0.81,8.73,1.68
321034,6.49,-3.41,13.63,0.81,8.73,1.72
321069,7.32,-3.02,13.98,0.76,8.73,1.78
321104,8.94,-4.45,16.04,0.70,8.73,1.79
321139,11.15,-4.16,19.33,0.73,8.73,1.73
321174,12.41,-3.87,22.75,0.82,8.73,1.73
321209,12.53,-4.71,25.43,0.90,8.73,1.76
321244,11.07,-5.25,27.83,0.95,8.73,1.83
321279,8.63,-6.18,29.81,0.95,8.73,1.92
321315,5.34,-7.50,30.81,0.90,8.73,2.01
321349,2.77,-6.65,32.67,0.84,8.73,1.99
321384,-0.29,-5.89,33.23,0.85,8.73,1.92
321419,-3.02,-4.08,31.41,0.92,8.73,1.80
321454,-5.55,-4.28,29.28,1.08,8.73,1.75
321489,-5.85,-4.05,25.66,1.24,8.73,1.80
321524,-6.92,-5.87,22.34,1.34,8.73,1.93
321559,-5.44,-5.89,19.56,1.33,8.73,2.07
321594,-4.07,-5.21,16.51,1.23,8.73,2.10
321629,-2.67,-4.74,14.43,1.10,8.73,1.99
321664,-0.25,-1.55,14.07,1.04,8.73,1.85
321699,4.48,-1.29,14.64,1.08,8.73,1.72
321734,6.58,0.34,15.35,1.24,8.73,1.59
321769,9.65,-0.66,16.23,1.49,8.73,1.54
321804,11.81,-2.62,19.37,1.64,8.73,1.64
321839,11.96,-5.12,22.29,1.65,8.73,1.81
321874,12.15,-6.67,24.78,1.53,8.73,1.97
321909,10.85,-8.02,27.03,1.37,8.73,2.07
321944,8.57,-7.78,29.40,1.14,8.73,1.98
321979,6.69,-6.52,32.11,1.00,8.73,1.85
322014,4.08,-6.75,33.82,0.96,8.73,1.79
322049,0.96,-6.76,34.22,0.91,8.73,1.79
322084,-1.97,-7.14,31.73,0.79,8.73,1.84
322119,-3.69,-5.32,28.28,0.62,8.73,1.85
322154,-5.69,-4.10,24.94,0.43,8.73,1.74
322189,-6.58,-2.10,22.81,0.27,8.73,1.61
322224,-6.77,-0.80,21.18,0.31,8.73,1.50
322259,-5.98,-1.46,18.80,0.47,8.73,1.54
322294,-3.34,-1.72,15.89,0.60,8.73,1.63
322329,0.61,-3.42,14.35,0.65,8.73,1.78
322364,6.12,-5.54,14.36,0.57,8.73,1.87
322399,7.38,-6.01,14.60,0.38,8.73,1.92
322434,8.03,-5.41,14.85,0.25,8.73,1.84
322469,9.29,-5.04,17.26,0.23,8.73,1.68
322504,10.97,-3.71,20.55,0.26,8.73,1.52
322539,11.58,-3.50,24.18,0.44,8.73,1.42
322574,12.27,-3.14,28.06,0.67,8.73,1.41
322609,9.69,-5.21,30.43,0.77,8.73,1.41
322643,6.95,-5.38,32.00,0.86,8.73,1.37
322678,4.12,-4.84,34.11,0.95,8.73,1.33
322713,0.79,-4.81,34.37,1.08,8.73,1.31
322748,-1.60,-5.62,31.52,1.16,8.73,1.39
322783,-4.30,-6.29,30.08,1.14,8.73,1.53
322819,-5.71,-5.03,27.11,0.98,8.73,1.62
322853,-5.71,-3.82,22.94,0.87,8.73,1.61
322888,-5.81,-1.77,19.82,0.74,8.73,1.50
322923,-4.84,0.61,16.76,0.71,8.73,1.38
322958,-2.67,-0.07,14.80,0.79,8.73,1.36
322998,-1.44,-0.51,14.28,0.94,8.73,1.54
323033,4.87,-3.41,14.54,0.96,8.73,1.62
323068,6.77,-3.12,13.13,0.92,8.73,1.70
323103,9.37,-0.05,14.10,0.93,8.73,1.75
323138,10.45,-3.34,19.60,1.09,8.73,1.75
323173,12.97,-1.45,21.98,1.26,8.73,1.79
323208,12.18,-3.05,24.60,1.31,8.73,1.94
323243,10.97,-7.87,27.42,1.22,8.73,2.04
323278,8.99,-7.58,29.90,1.07,8.73,1.99
323313,6.92,-6.92,31.54,0.95,8.73,1.88
323348,3.90,-6.60,32.80,0.93,8.73,1.70
323383,0.69,-5.56,33.03,0.99,8.73,1.61
323418,-2.22,-5.44,31.25,1.00,8.73,1.61
323453,-4.28,-4.45,28.72,0.94,8.73,1.64
323488,-5.71,-4.13,25.63,0.82,8.73,1.65
323523,-7.22,-3.73,23.67,0.71,8.73,1.62
323558,-7.79,-2.06,21.25,0.66,8.73,1.55
323593,-6.48,-0.31,18.22,0.70,8.73,1.50
323628,-5.28,-1.48,15.65,0.75,8.73,1.49
323663,-0.66,-1.02,14.66,0.80,8.73,1.51
323698,2.95,-2.36,13.48,0.81,8.73,1.55
323733,5.49,-2.58,13.24,0.81,8.73,1.56
323768,8.06,-3.91,14.36,0.77,8.73,1.59
323803,9.91,-3.62,16.77,0.74,8.73,1.60
323838,11.18,-3.82,19.16,0.74,8.73,1.59
323873,12.30,-4.77,23.13,0.74,8.73,1.55
323908,12.18,-4.84,26.68,0.84,8.73,1.55
323943,10.64,-5.80,29.57,0.92,8.73,1.58
323978,7.98,-5.41,32.11,0.99,8.73,1.60
324013,4.83,-4.95,32.04,0.99,8.73,1.61
324048,1.81,-5.00,31.55,1.03,8.73,1.61
324083,-0.66,-4.52,30.47,1.07,8.73,1.63
324118,-3.31,-4.54,28.73,1.10,8.73,1.67
324153,-6.46,-4.14,27.36,1.14,8.73,1.73
324188,-6.65,-4.19,23.74,1.20,8.73,1.82
324223,-7.78,-3.64,21.09,1.27,8.73,1.94
324258,-6.10,-5.35,17.79,1.42,8.73,2.20
324293,-7.02,-8.68,15.30,1.31,8.73,2.41
324328,-3.64,-5.58,13.52,1.12,8.73,2.45
324364,0.54,-5.80,12.39,0.92,8.73,2.34
324398,4.44,-2.76,12.47,0.83,8.73,2.00
324432,8.01,-1.63,13.56,0.85,8.73,1.86
324467,9.50,-3.81,15.28,0.84,8.73,1.83
324502,11.14,-6.58,17.87,0.67,8.73,1.88
324537,11.44,-6.94,21.11,0.41,8.73,1.80
324572,11.94,-5.27,24.77,0.35,8.73,1.64
324607,11.31,-3.62,27.80,0.41,8.73,1.57
324642,8.83,-3.33,29.24,0.53,8.73,1.64
324677,7.12,-4.61,30.83,0.62,8.73,1.85
324712,3.36,-6.01,29.96,0.56,8.73,2.03
324747,0.53,-5.37,30.15,0.39,8.73,2.10
324782,-2.18,-5.40,29.58,0.28,8.73,1.96
324817,-5.04,-3.26,29.48,0.27,8.73,1.82
324852,-5.91,-1.60,26.48,0.49,8.73,1.63
324887,-6.99,-2.59,23.09,0.74,8.73,1.58
324922,-7.58,-3.80,19.81,0.88,8.73,1.62
324957,-6.47,-2.84,16.99,0.93,8.73,1.67
324992,-6.27,-2.30,14.71,0.89,8.73,1.65
325032,-2.04,-1.15,13.70,0.86,8.73,1.57
325067,1.34,-0.36,12.58,0.88,8.73,1.45
325102,4.76,0.28,12.46,0.98,8.73,1.34
325137,7.71,-0.73,12.59,1.09,8.73,1.35
325172,10.30,-2.70,15.61,1.10,8.73,1.43
325207,12.11,-4.80,17.78,0.98,8.73,1.50
325242,12.78,-4.36,20.48,0.87,8.73,1.50
325277,12.06,-4.26,23.20,0.83,8.73,1.47
325312,10.83,-3.85,26.13,0.86,8.73,1.46
325347,8.62,-3.62,28.16,0.92,8.73,1.49
325382,6.83,-5.30,29.32,0.97,8.67,1.55
325417,3.79,-5.07,30.39,1.00,8.70,1.54
325452,0.83,-4.41,31.64,1.07,8.73,1.48
325487,-1.96,-4.36,30.94,1.18,8.73,1.45
325522,-4.28,-4.53,29.10,1.28,8.73,1.52
325557,-6.11,-5.50,26.97,1.25,8.73,1.67
325592,-7.34,-5.54,23.52,1.18,8.73,1.80
325628,-8.11,-3.69,20.28,1.04,8.73,1.87
325662,-5.68,-3.78,17.29,0.97,8.73,1.90
325697,-5.63,-2.44,14.06,0.88,8.73,1.95
325732,-2.27,-4.63,12.90,0.82,8.73,2.09
325767,1.11,-5.42,11.68,0.66,8.73,2.17
325802,5.25,-5.72,12.29,0.49,8.73,2.24
325837,7.90,-5.99,12.11,0.31,8.73,2.16
325872,10.35,-6.18,15.28,0.14,8.73,2.03
325907,11.09,-3.74,19.03,0.10,8.73,1.82
325942,12.40,-1.60,22.02,0.25,8.73,1.66
325977,11.28,-3.14,23.93,0.45,8.73,1.59
326012,9.25,-3.79,26.86,0.58,8.73,1.55
326047,8.23,-4.34,30.21,0.66,8.73,1.49
326082,5.60,-3.61,31.64,0.71,8.73,1.51
326117,2.80,-4.94,31.61,0.84,8.73,1.54
326152,0.11,-3.43,33.35,0.92,8.73,1.55
326187,-1.98,-2.84,31.39,0.95,8.73,1.57
326222,-4.29,-2.70,28.36,1.09,8.73,1.54
326257,-5.75,-2.49,24.53,1.27,8.73,1.60
326292,-5.75,-3.97,20.80,1.47,8.73,1.77
326327,-5.43,-3.79,17.59,1.52,8.73,1.98
326362,-6.24,-5.06,14.53,1.43,8.68,2.14
326397,-4.61,-3.87,13.06,1.25,8.73,2.14
326432,-0.41,-2.37,12.98,1.09,8.73,1.93
326467,2.44,-0.11,12.72,1.05,8.73,1.70
326502,6.34,0.06,13.38,1.11,8.73,1.58
326537,8.92,-1.03,14.88,1.21,8.73,1.54
326572,11.03,-2.69,16.02,1.20,8.72,1.61
326607,12.66,-3.55,17.97,1.08,8.65,1.68
326642,12.63,-4.29,20.35,0.95,8.66,1.69
326677,12.50,-5.64,23.02,0.83,8.72,1.64
326712,11.51,-5.04,26.32,0.77,8.73,1.54
326747,8.83,-4.06,29.02,0.78,8.73,1.45
326782,5.74,-4.32,30.18,0.83,8.73,1.41
326817,3.29,-4.29,32.67,0.92,8.73,1.33
326852,-0.32,-3.74,31.93,1.04,8.73,1.24
326887,-3.17,-3.57,29.67,1.17,8.73,1.27
326922,-5.35,-3.89,27.50,1.24,8.73,1.36
326957,-5.57,-3.69,23.79,1.28,8.73,1.49
326992,-6.00,-3.13,20.77,1.24,8.73,1.55
327027,-6.32,-2.38,17.38,1.19,8.73,1.59
327067,-4.35,-1.95,14.85,1.11,8.73,1.59
327102,-3.22,-2.12,13.14,1.05,8.73,1.53
327137,-0.04,-1.19,12.05,1.05,8.73,1.54
327172,2.08,-2.14,12.82,1.05,8.73,1.58
327207,6.25,-2.37,12.60,0.99,8.73,1.64
327242,8.81,-5.35,13.93,0.88,8.73,1.74
327277,10.91,-5.06,16.07,0.73,8.73,1.74
327312,12.09,-5.26,18.52,0.61,8.73,1.69
327347,12.04,-5.40,20.79,0.57,8.73,1.58
327383,11.35,-4.00,24.08,0.60,8.73,1.50
327417,10.43,-5.11,27.38,0.64,8.73,1.47
327452,7.88,-4.64,30.02,0.69,8.73,1.43
327487,4.84,-4.80,30.44,0.73,8.73,1.43
327522,1.88,-5.08,31.28,0.76,8.73,1.51
327557,-1.02,-4.85,30.92,0.78,8.73,1.53
327592,-3.53,-4.33,28.31,0.83,8.73,1.52
327627,-5.95,-2.99,26.90,0.93,8.73,1.49
327662,-6.33,-3.39,23.43,1.06,8.73,1.53
327697,-6.52,-3.43,20.50,1.11,8.73,1.58
327732,-6.53,-3.13,18.16,1.11,8.73,1.66
327767,-5.69,-2.87,15.59,1.09,8.73,1.72
327802,-2.53,-2.02,13.88,1.07,8.73,1.72
327837,0.26,-2.47,12.70,1.07,8.73,1.74
327872,2.49,-1.82,12.55,1.03,8.73,1.76
327907,5.49,-2.18,12.67,1.02,8.73,1.78
327942,7.07,-3.15,14.15,1.04,8.73,1.82
327977,10.63,-3.70,15.14,1.01,8.73,1.87
328012,11.97,-4.48,19.81,0.94,8.73,1.95
328047,12.67,-4.97,23.30,0.93,8.73,1.96
328082,11.86,-4.96,26.07,0.90,8.73,2.08
328117,9.90,-6.28,27.76,0.89,8.68,2.27
328152,7.13,-7.35,29.17,0.77,8.58,2.46
328187,4.83,-8.38,29.74,0.51,8.61,2.58
328222,2.09,-7.85,31.82,0.18,8.73,2.54
328257,-1.29,-6.16,32.67,-0.01,8.73,2.27
328293,-4.36,-5.00,31.46,-0.02,8.73,1.97
328327,-5.75,-3.40,28.10,0.04,8.73,1.73
328362,-5.57,-2.04,24.63,0.17,8.73,1.49
328397,-8.36,-1.87,22.15,0.26,8.73,1.31
328432,-6.83,0.05,20.05,0.41,8.73,1.19
328467,-3.42,0.76,18.42,0.60,8.73,1.09
328502,-4.38,0.69,15.92,0.83,8.73,1.05
328537,0.50,-1.26,16.34,1.00,8.73,1.21
328572,5.81,-1.63,15.06,1.17,8.73,1.36
328607,9.17,-1.29,16.30,1.37,8.73,1.46
328642,12.19,-3.60,18.48,1.54,8.73,1.61
328677,12.86,-2.65,21.60,1.79,8.73,1.78
328712,11.92,-4.13,24.06,2.02,8.73,2.14
328747,11.98,-6.90,26.55,2.14,8.73,2.67
328782,10.62,-11.89,30.22,1.88,8.73,3.10
328817,7.89,-14.37,33.83,1.46,8.73,3.31
328852,4.35,-14.12,36.30,0.97,8.73,3.40
328887,0.50,-11.11,37.77,0.46,8.73,3.24
328922,-3.42,-11.78,37.46,0.23,8.73,2.92
328957,-6.09,-6.26,35.87,0.28,8.73,2.52
328992,-4.20,-5.69,30.48,0.43,8.73,2.18
329027,-6.93,-5.80,26.21,0.54,8.73,2.04
329062,-5.78,-6.68,23.37,0.71,8.73,1.94
329102,-1.24,-3.99,19.92,0.71,8.73,1.68
329137,3.21,2.19,19.80,0.75,8.73,1.26
329172,5.12,1.14,17.98,1.09,8.73,0.95
329207,8.84,3.60,20.34,1.59,8.73,0.94
329242,11.61,-2.16,20.77,1.74,8.73,1.26
329277,11.71,-7.80,23.85,1.76,8.73,1.64
329312,12.35,-8.49,27.41,1.45,8.73,1.82
329347,11.84,-8.79,31.22,1.19,8.73,1.95
329382,10.38,-9.53,32.94,1.24,8.73,2.09
329417,8.00,-10.06,35.39,1.11,8.73,2.41
329452,4.13,-12.89,34.99,0.92,8.73,2.79
329487,0.74,-10.95,36.67,0.50,8.73,2.92
329522,-3.20,-11.17,37.38,0.22,8.73,2.78
329557,-5.34,-5.81,36.49,0.12,8.73,2.44
329592,-5.87,-5.44,32.23,0.11,8.73,2.14
329627,-7.78,-4.84,27.38,0.26,8.73,1.87
329662,-3.35,-3.78,23.34,0.47,8.73,1.65
329697,0.10,1.30,21.08,0.55,8.73,1.36
329732,-1.71,1.09,18.72,0.83,8.73,1.18
329767,1.95,0.69,20.84,1.15,8.73,1.07
329802,5.46,2.10,20.97,1.70,8.73,1.03
329837,10.08,-0.65,23.02,2.02,8.73,1.32
329872,13.35,-4.92,30.14,2.19,8.73,1.69
329907,14.77,-7.85,33.54,2.19,8.73,2.16
329942,13.35,-10.24,36.66,2.00,8.73,2.48
329977,9.29,-11.69,38.73,1.70,8.73,2.78
330012,5.51,-12.82,40.45,1.33,8.73,2.92
330047,2.04,-13.86,40.24,0.91,8.73,2.90
330082,-1.78,-11.85,40.52,0.65,8.73,2.76
330117,-4.26,-8.96,38.01,0.41,8.73,2.56
330152,-4.12,-7.41,31.06,0.26,8.73,2.30
330187,-6.73,-5.45,29.64,0.33,8.73,2.03
330222,-3.49,-2.17,26.70,0.39,8.73,1.92
330257,-2.03,-5.08,22.31,0.53,8.73,1.70
330292,1.33,-1.13,20.77,0.72,8.73,1.52
330327,5.62,1.65,22.25,1.02,8.73,1.25
330362,8.16,1.80,20.11,1.39,8.73,1.17
330397,10.36,-1.88,22.29,1.77,8.73,1.34
330432,11.92,-6.25,26.51,1.96,8.73,1.69
330467,13.96,-9.23,30.00,1.80,8.73,1.99
