timestamp,accelX,accelY,accelZ,gyroX,gyroY,gyroZ
445393,6.91,2.62,-6.50,0.26,-0.02,-0.01
445428,6.89,2.73,-6.44,0.27,-0.03,-0.01
445463,6.88,2.39,-6.58,0.27,-0.03,-0.01
445498,6.80,2.28,-6.66,0.26,-0.04,-0.00
445533,6.61,2.62,-6.65,0.25,-0.03,0.00
445568,6.77,2.41,-6.74,0.25,-0.02,-0.00
445603,7.88,2.52,-6.38,0.25,-0.04,-0.02
445638,7.83,1.58,-6.09,0.23,-0.12,-0.05
445673,6.85,4.91,-6.23,0.26,-0.16,-0.07
445708,5.86,3.21,-6.88,0.49,-0.10,-0.23
445743,4.66,0.44,-7.75,0.40,-0.02,-0.15
445778,4.31,2.14,-7.84,0.25,0.11,-0.02
445814,3.66,3.28,-7.46,0.27,0.27,0.02
445848,3.86,3.97,-7.61,0.35,0.47,-0.00
445883,4.98,2.39,-7.42,0.43,0.65,0.02
445918,4.75,3.58,-6.53,0.47,0.79,0.06
445953,4.85,2.70,-7.30,0.54,0.96,0.09
445988,4.84,1.79,-7.13,0.48,1.17,0.17
446023,6.05,0.90,-5.73,0.39,1.31,0.25
446058,6.50,1.21,-6.23,0.22,1.41,0.37
446093,6.13,2.27,-4.76,0.14,1.53,0.44
446128,7.36,0.84,-5.23,0.15,1.67,0.48
446163,6.39,2.24,-3.56,0.11,1.84,0.53
446198,6.42,3.49,-3.87,0.22,2.05,0.58
446233,7.66,2.95,-3.10,0.35,2.30,0.66
446268,6.69,1.81,-1.17,0.50,2.57,0.77
446303,10.02,1.73,0.77,0.61,2.78,0.85
446338,8.79,-0.13,1.65,0.62,3.00,0.98
446374,7.13,-2.71,1.77,0.61,3.22,1.05
446408,8.47,-0.67,4.09,0.55,3.49,1.06
446443,7.90,-0.46,4.56,0.61,3.85,1.13
446478,8.27,-2.64,6.56,0.61,4.36,1.23
446514,7.07,-0.84,9.82,0.57,4.83,1.33
446548,6.79,-2.64,14.19,0.66,5.06,1.59
446584,5.53,-1.97,16.41,0.70,4.96,2.04
446618,3.93,-4.19,16.33,0.48,4.68,2.34
446653,2.21,-4.17,15.68,0.18,4.48,2.47
446688,0.80,-5.79,15.76,-0.12,4.41,2.63
446723,-0.43,-5.36,16.07,-0.39,4.49,2.78
446758,-1.55,-3.51,17.26,-0.53,4.75,2.61
446793,-3.48,-3.53,17.73,-0.46,5.09,2.20
446828,-4.64,-1.31,16.43,-0.17,5.33,1.81
446864,-7.12,-0.88,15.76,0.12,5.42,1.51
446898,-7.67,-1.29,13.06,0.48,5.45,1.33
446933,-7.01,-2.32,10.25,0.75,5.38,1.31
446968,-8.49,-0.22,9.44,1.08,5.32,1.36
447008,-8.15,-3.52,6.09,1.37,5.29,1.55
447043,-2.51,-4.08,1.91,1.36,5.38,1.85
447078,-9.10,-5.45,3.45,1.37,5.25,2.08
447113,-6.99,-3.65,1.58,1.27,5.15,2.41
447148,-9.94,-6.36,-0.90,1.05,5.06,2.34
447183,-10.25,-3.10,-0.65,0.78,5.14,2.24
447218,-6.45,-4.51,-0.99,0.60,5.24,2.24
447253,-3.40,-3.90,-1.66,0.41,5.34,2.20
447288,3.46,-2.25,-2.01,0.24,5.34,2.10
447324,7.49,-0.64,-1.58,0.20,5.21,1.81
447359,13.26,-0.15,-0.55,0.34,5.51,1.48
447393,2.91,3.92,1.83,0.62,5.35,1.12
447428,6.22,1.77,0.88,1.00,5.41,0.96
447463,7.26,2.44,1.41,1.07,5.44,0.96
447498,7.53,-2.58,2.63,0.94,5.55,1.08
447533,9.16,-4.59,6.04,0.67,5.65,1.10
447569,10.34,-2.86,9.55,0.39,5.69,1.03
447603,9.99,-3.45,11.22,0.37,5.82,0.95
447639,9.32,-2.07,14.23,0.40,6.02,0.91
447673,8.38,-1.97,16.26,0.46,6.15,0.96
447708,7.41,-3.04,18.93,0.53,6.27,1.05
447743,4.71,-2.96,19.51,0.57,6.33,1.26
447778,2.55,-3.93,20.56,0.57,6.30,1.48
447813,0.83,-3.92,21.33,0.48,6.28,1.64
447848,-0.84,-4.76,20.91,0.33,6.30,1.77
447883,-3.16,-1.92,20.14,0.28,6.29,1.66
447918,-5.94,0.14,19.85,0.55,6.30,1.33
447953,-6.75,-1.16,17.54,0.84,6.31,1.18
447988,-6.42,-0.87,14.69,1.12,6.29,1.19
448023,-8.55,-2.59,13.30,1.28,6.31,1.26
448058,-10.12,-3.37,12.04,1.10,6.41,1.34
448093,-8.41,-1.34,9.62,1.00,6.58,1.39
448128,-6.40,-1.68,7.98,0.79,6.68,1.27
448163,-6.07,0.20,6.48,0.62,6.76,1.05
448198,-4.37,0.92,5.74,0.65,6.85,1.07
448233,-1.87,-0.82,5.59,0.72,6.93,1.34
448269,-3.64,-2.43,5.24,0.70,7.10,1.65
448303,-2.27,-2.23,4.63,0.61,7.41,1.83
448338,1.09,-0.82,6.68,0.65,7.81,1.69
448373,5.82,-0.53,9.15,0.80,8.10,1.57
448408,10.30,2.23,13.98,1.15,8.29,1.50
448443,10.80,0.09,18.04,1.45,8.34,1.63
448478,10.92,-4.79,19.63,1.56,8.33,1.81
448513,13.31,-5.55,23.24,1.35,8.33,1.88
448548,8.99,-8.92,23.87,1.08,8.31,1.75
448583,7.73,-5.09,27.47,0.90,8.46,1.43
448618,5.20,-5.58,28.22,0.93,8.73,1.16
448653,2.65,-3.59,34.85,1.11,8.73,1.02
448688,0.06,-6.22,32.80,1.43,8.73,1.15
448723,-3.39,-4.51,31.49,1.61,8.73,1.32
448758,-5.83,-3.22,27.10,1.79,8.73,1.39
448793,-4.94,-4.88,19.66,1.82,8.68,1.54
448828,-6.90,-4.84,18.02,1.68,8.38,1.67
448863,-7.73,-4.21,16.09,1.57,8.31,1.79
448898,-8.88,-3.99,14.77,1.32,8.42,1.73
448933,-4.85,-2.36,14.85,1.10,8.73,1.46
448968,-0.45,4.25,12.94,1.11,8.73,1.23
449003,3.13,4.03,14.09,1.38,8.73,1.12
449043,7.27,1.57,13.08,1.58,8.73,1.15
449078,9.21,-0.91,13.37,1.61,8.73,1.37
449113,11.04,-3.95,17.15,1.56,8.73,1.58
449148,12.77,-4.65,19.37,1.43,8.73,1.67
449183,13.86,-3.68,21.87,1.37,8.71,1.79
449218,10.70,-5.75,24.22,1.39,8.71,1.91
449253,9.82,-5.79,27.23,1.26,8.67,1.98
449288,8.02,-6.81,29.85,1.17,8.72,2.04
449324,4.47,-6.45,30.48,1.07,8.71,1.95
449359,1.54,-5.64,32.31,1.02,8.72,1.85
449393,-1.11,-5.58,30.51,1.08,8.73,1.80
449428,-3.79,-3.92,28.91,1.19,8.73,1.72
449463,-6.41,-4.93,26.44,1.27,8.69,1.74
449498,-7.22,-3.70,24.15,1.44,8.70,1.83
449533,-6.90,-5.32,20.49,1.53,8.73,1.97
449568,-7.01,-6.66,17.96,1.41,8.73,2.11
449603,-6.30,-5.62,16.87,1.20,8.73,2.12
449638,-4.31,-3.10,15.11,0.97,8.73,1.88
449673,1.60,-0.71,14.63,0.94,8.73,1.65
449708,7.20,-1.12,13.69,0.97,8.73,1.55
449743,9.62,-2.65,13.97,0.93,8.73,1.64
449779,10.70,-6.45,15.17,0.78,8.73,1.69
449814,8.60,-11.19,15.06,0.32,8.73,1.71
449848,11.66,-8.91,18.98,-0.22,8.73,1.50
449883,11.45,-6.15,24.22,-0.45,8.73,1.13
449918,10.32,-1.88,28.84,-0.26,8.73,0.92
449953,8.61,-2.37,31.74,0.15,8.73,0.90
449988,6.76,-3.43,34.36,0.49,8.73,1.04
450023,3.50,-4.93,36.58,0.68,8.73,1.32
450059,0.54,-4.31,34.72,0.59,8.73,1.52
450093,-3.58,-3.99,34.67,0.39,8.73,1.63
450128,-5.26,-3.17,32.65,0.20,8.73,1.58
450163,-5.25,0.49,29.39,0.17,8.73,1.42
450198,-7.37,0.21,25.69,0.29,8.73,1.25
450233,-5.99,1.74,22.74,0.45,8.73,1.16
450268,-3.75,0.57,19.02,0.66,8.73,1.14
450303,0.23,0.85,18.27,0.85,8.73,1.25
450338,3.04,-1.35,17.31,0.98,8.73,1.44
450374,5.15,-1.47,15.84,1.05,8.73,1.59
450408,8.67,-2.39,17.93,1.11,8.73,1.67
450443,10.29,-2.21,20.93,1.22,8.73,1.69
450478,12.25,-1.03,23.93,1.49,8.73,1.73
450513,12.52,-3.89,26.84,1.66,8.73,1.99
450548,11.21,-7.12,31.29,1.59,8.73,2.20
450583,10.20,-9.33,34.99,1.34,8.73,2.30
450618,6.46,-7.38,36.35,1.13,8.73,2.16
450653,3.47,-8.11,37.68,1.09,8.73,2.00
450688,0.95,-6.54,38.61,1.19,8.73,1.91
450723,-2.84,-7.81,38.20,1.27,8.73,1.87
450759,-4.45,-6.91,34.74,1.26,8.73,1.97
450793,-4.45,-6.66,29.08,1.12,8.73,1.96
450828,-3.96,-3.94,24.19,0.85,8.73,1.86
450864,-1.91,-2.40,23.14,0.85,8.73,1.72
450898,3.57,-2.28,20.09,0.87,8.73,1.69
450933,3.90,-3.17,20.17,0.88,8.73,1.69
450968,8.13,-5.84,19.22,0.84,8.73,1.63
451003,6.11,-4.28,20.73,0.62,8.73,1.88
451038,8.54,-9.07,23.25,0.43,8.73,2.02
451078,12.95,-8.82,27.55,0.23,8.73,1.86
451113,12.29,-4.89,31.69,0.26,8.73,1.58
451148,11.38,-3.11,35.10,0.40,8.73,1.48
451183,10.32,-6.39,39.21,0.72,8.73,1.48
451218,7.60,-5.33,45.43,0.96,8.73,1.71
451253,2.94,-7.82,44.87,0.97,8.73,1.93
451289,-1.09,-7.16,40.25,0.76,8.73,2.05
451323,-3.08,-4.94,35.82,0.70,8.73,2.01
451359,-3.72,-2.61,33.41,0.79,8.73,1.92
451393,-7.85,-3.99,32.67,0.97,8.73,1.93
451428,-9.82,-3.54,31.92,1.16,8.73,2.08
451463,-6.00,-5.42,29.71,1.22,8.73,2.15
451498,-0.16,-2.62,27.28,1.16,8.73,1.98
451533,7.84,-2.38,27.65,1.29,8.73,1.82
451568,13.06,-3.39,29.32,1.43,8.73,1.86
451603,13.84,-6.43,28.38,1.38,8.73,2.02
451639,13.50,-7.02,31.70,1.23,8.73,2.18
451673,12.17,-5.68,35.56,1.14,8.73,2.31
451708,12.72,-8.19,40.94,1.23,8.73,2.54
451743,8.57,-8.95,44.69,1.19,8.73,2.80
451778,5.71,-12.87,46.30,0.94,8.73,3.03
451813,1.50,-10.36,45.64,0.58,8.73,3.01
451848,-1.28,-6.11,43.48,0.52,8.73,2.68
451883,-3.73,-5.29,40.80,0.71,8.73,2.38
451918,-4.01,-5.54,35.14,1.00,8.73,2.25
451953,-5.16,-5.52,31.02,1.14,8.73,2.28
451988,-1.39,-7.41,26.64,1.09,8.73,2.32
452023,-0.33,-5.45,24.79,0.98,8.73,2.27
452058,2.44,-4.77,24.98,0.89,8.73,2.10
452093,7.23,-2.84,24.95,0.97,8.73,1.87
452128,11.56,-1.29,27.59,1.11,8.73,1.77
452163,13.48,-2.85,29.81,1.26,8.73,1.78
452198,12.89,-7.54,32.09,1.23,8.73,1.86
452233,12.63,-8.41,35.91,1.14,8.73,1.84
452268,11.16,-7.87,40.07,1.14,8.73,1.81
452303,8.24,-7.15,43.23,1.22,8.73,1.76
452339,4.07,-7.98,43.66,1.40,8.73,1.71
452373,0.24,-7.26,43.19,1.63,8.73,1.75
452409,-3.15,-6.56,40.55,1.77,8.73,1.86
452443,-5.25,-7.78,36.88,1.90,8.73,2.05
452478,-7.46,-10.41,33.59,1.87,8.73,2.34
452513,-7.80,-10.82,30.25,1.60,8.73,2.51
452548,-5.11,-6.13,28.24,1.25,8.73,2.42
452583,-1.89,-4.01,25.01,1.09,8.73,2.17
452618,3.36,-2.30,26.45,1.15,8.73,2.10
452653,8.31,-4.04,26.68,1.16,8.73,2.11
452688,11.06,-7.99,28.81,1.07,8.73,2.20
452723,12.70,-8.90,31.52,0.88,8.73,2.21
452758,13.61,-10.33,33.94,0.60,8.73,2.07
452792,12.35,-6.63,38.43,0.52,8.73,1.83
452827,10.23,-5.74,41.89,0.62,8.73,1.65
452862,6.94,-6.47,44.43,0.82,8.73,1.68
452897,2.80,-5.15,44.98,0.85,8.73,1.80
452932,-0.48,-6.56,43.44,0.81,8.73,1.87
452967,-3.55,-5.08,42.50,0.83,8.73,1.87
453002,-4.35,-2.41,39.53,1.01,8.73,1.86
453037,-3.56,-3.95,34.89,1.21,8.73,1.91
453072,-5.94,-7.45,30.50,1.30,8.73,2.09
453112,-2.87,-6.32,28.00,1.27,8.73,2.24
453147,3.22,-5.72,26.77,1.21,8.73,2.18
453182,6.86,-3.83,26.36,1.24,8.73,2.07
453217,10.17,-2.97,25.79,1.32,8.73,2.06
453252,12.78,-5.17,28.93,1.48,8.73,2.13
453287,14.04,-5.83,32.43,1.52,8.73,2.25
453322,12.61,-6.37,35.44,1.50,8.73,2.35
453357,11.88,-9.03,39.05,1.38,8.73,2.47
453391,9.13,-9.48,42.44,1.26,8.73,2.49
453426,6.17,-8.51,42.95,1.09,8.73,2.51
453461,2.04,-9.24,43.50,0.95,8.73,2.44
453496,-2.24,-6.92,44.08,0.95,8.73,2.32
453531,-4.01,-5.49,40.45,1.07,8.73,2.18
453566,-4.90,-6.40,35.61,1.26,8.73,2.19
453601,-5.39,-8.59,31.77,1.33,8.73,2.31
453636,-4.57,-8.83,28.39,1.26,8.73,2.45
453670,0.22,-6.56,25.84,1.05,8.73,2.39
453705,5.21,-7.24,25.05,0.97,8.73,2.27
453740,8.07,-4.44,25.11,1.00,8.73,2.17
453775,10.81,-6.04,25.63,1.02,8.73,2.14
453810,12.79,-8.71,28.18,0.90,8.73,2.21
453846,12.29,-7.77,32.76,0.70,8.73,2.12
453880,13.58,-6.10,36.43,0.73,8.73,2.04
453915,11.30,-6.74,39.43,0.85,8.73,2.07
453950,9.29,-7.58,43.22,0.96,8.73,2.19
453985,5.50,-7.86,45.59,0.93,8.73,2.25
454020,1.10,-8.88,45.57,0.89,8.73,2.31
454055,-2.38,-6.44,44.40,0.91,8.73,2.24
454090,-3.81,-4.90,39.81,1.00,8.73,2.14
454125,-4.39,-6.02,34.74,1.11,8.73,2.11
454160,-4.20,-6.72,30.83,1.19,8.73,2.21
454195,-3.29,-7.28,27.25,1.14,8.73,2.27
454230,1.15,-3.69,25.93,1.05,8.73,2.16
454265,2.96,-3.97,24.05,1.03,8.73,2.03
454300,7.12,-5.49,24.97,1.04,8.73,2.00
454336,10.85,-6.75,26.85,1.03,8.73,2.05
454370,12.85,-7.74,30.40,0.98,8.73,2.10
454405,13.17,-7.95,34.81,0.96,8.73,2.09
454440,13.82,-7.76,38.44,0.97,8.73,2.13
454475,10.71,-7.38,41.34,0.96,8.73,2.20
454510,6.56,-8.26,42.88,0.88,8.73,2.34
454545,3.21,-8.88,45.50,0.75,8.73,2.53
454580,-0.21,-7.65,44.75,0.57,8.73,2.49
454615,-3.43,-5.94,41.59,0.51,8.73,2.27
454650,-4.19,-4.73,37.10,0.55,8.73,2.10
454685,-5.02,-2.84,33.31,0.64,8.73,2.01
454720,-6.23,-3.70,29.89,0.80,8.73,2.04
454755,-2.23,-5.27,26.47,0.97,8.73,2.14
454790,2.68,-5.71,25.58,0.95,8.73,2.26
454825,5.97,-6.79,24.18,0.88,8.73,2.25
454860,8.80,-4.57,26.02,0.83,8.73,2.19
454895,9.90,-4.91,27.93,0.89,8.73,2.07
454930,11.60,-5.34,31.24,0.99,8.73,2.08
454965,13.25,-6.04,35.88,1.10,8.73,2.13
455000,12.34,-8.05,40.42,1.24,8.73,2.29
455035,9.74,-7.62,44.46,1.16,8.73,2.36
455070,6.53,-8.48,45.86,1.05,8.73,2.35
455105,1.85,-8.41,43.99,1.00,8.73,2.32
455145,-2.23,-6.80,42.15,1.02,8.73,2.21
455180,-3.42,-6.75,37.71,0.98,8.73,2.16
455215,-5.83,-6.45,35.01,0.97,8.73,2.14
455250,-5.56,-4.97,31.91,0.88,8.73,2.15
455285,-3.82,-6.26,28.71,0.86,8.73,2.09
455320,-0.66,-2.79,26.40,0.89,8.73,2.06
455355,2.11,-3.62,24.74,0.89,8.73,2.03
455390,7.56,-3.20,24.63,0.93,8.73,2.00
455425,11.66,-2.15,27.31,1.05,8.73,1.96
455460,12.96,-5.25,30.54,1.20,8.73,1.95
455495,12.97,-6.17,34.34,1.28,8.73,1.98
455530,13.75,-7.58,37.45,1.28,8.73,2.03
455564,10.48,-8.37,40.09,1.19,8.73,2.00
455599,8.86,-8.69,44.57,1.17,8.73,1.92
455634,4.65,-7.81,45.05,1.28,8.73,1.78
455669,0.87,-6.78,45.00,1.50,8.73,1.71
455704,-3.06,-7.02,42.94,1.64,8.73,1.83
455739,-5.40,-8.47,39.37,1.77,8.73,2.03
455774,-6.83,-9.42,35.81,1.65,8.73,2.24
455809,-6.40,-7.19,32.64,1.43,8.73,2.38
455845,-4.04,-6.85,29.19,1.24,8.73,2.37
455879,2.79,-6.05,27.85,1.14,8.73,2.27
455914,6.06,-6.24,27.97,1.08,8.73,2.32
455949,8.62,-8.48,27.86,0.99,8.73,2.34
455984,11.70,-7.80,29.62,0.85,8.73,2.35
456019,13.14,-7.81,33.38,0.72,8.73,2.27
456054,13.54,-6.07,38.08,0.78,8.73,2.18
456089,12.74,-6.07,42.50,0.99,8.73,2.27
456124,8.96,-7.70,43.80,1.06,8.73,2.47
456160,6.17,-9.13,44.38,0.98,8.73,2.64
456194,2.51,-7.83,45.15,0.78,8.73,2.55
456229,-0.68,-6.71,42.38,0.80,8.73,2.35
456264,-3.00,-4.67,39.90,0.97,8.73,2.18
456299,-5.43,-6.00,37.00,1.12,8.73,2.17
456335,-5.42,-7.14,33.77,1.15,8.73,2.25
456369,-3.85,-7.35,30.54,1.07,8.73,2.29
456404,-1.13,-5.59,27.35,1.01,8.73,2.30
456439,2.85,-6.37,26.63,0.94,8.73,2.33
456474,6.86,-8.03,25.83,0.78,8.73,2.40
456509,10.10,-7.70,27.33,0.62,8.73,2.36
456544,12.17,-6.54,31.40,0.59,8.73,2.22
456579,13.73,-5.95,36.74,0.65,8.73,2.10
456614,13.43,-5.21,40.00,0.78,8.73,2.10
456649,11.03,-7.78,42.74,0.88,8.73,2.13
456684,7.09,-7.94,44.87,0.92,8.73,2.24
456719,3.52,-7.67,45.84,0.91,8.73,2.25
456754,0.00,-6.82,45.82,0.86,8.73,2.26
456789,-3.25,-6.29,43.32,0.91,8.73,2.17
456825,-4.16,-6.12,39.13,1.04,8.73,2.15
456859,-5.71,-6.95,34.84,1.27,8.73,2.23
456894,-3.58,-6.96,30.99,1.35,8.73,2.41
456929,-1.60,-8.07,27.27,1.27,8.73,2.59
456964,0.42,-8.17,24.42,1.10,8.73,2.55
456999,5.56,-6.22,25.71,0.96,8.73,2.52
457034,10.49,-4.54,27.61,0.99,8.73,2.34
457069,12.60,-5.51,29.50,1.03,8.73,2.25
457104,12.76,-5.24,34.09,1.14,8.73,2.25
457139,13.01,-8.36,38.17,1.21,8.73,2.32
457179,12.18,-9.80,42.11,1.00,8.73,2.34
457213,8.67,-7.68,44.63,0.93,8.73,2.26
457248,4.32,-8.72,45.30,0.85,8.73,2.20
457283,0.68,-7.31,45.79,0.79,8.73,2.11
457318,-2.31,-7.32,42.94,0.73,8.73,2.11
457354,-4.65,-5.88,38.77,0.65,8.73,2.05
457388,-5.49,-4.49,35.25,0.67,8.73,1.93
457423,-3.54,-1.81,32.53,0.87,8.73,1.93
457458,-3.01,-5.22,27.41,1.08,8.73,2.12
457493,1.06,-5.16,26.34,1.11,8.73,2.17
457528,4.88,-5.11,25.09,1.10,8.73,2.22
457563,7.39,-2.59,26.33,1.17,8.73,2.11
457598,11.68,-7.09,27.93,1.28,8.73,2.05
457633,13.41,-6.76,32.05,1.27,8.73,2.15
457668,13.90,-7.12,36.28,1.29,8.73,2.23
457703,12.12,-9.85,40.14,1.27,8.73,2.32
457738,10.06,-8.33,43.23,1.14,8.73,2.29
457773,6.04,-9.64,43.34,1.05,8.73,2.37
457808,2.59,-8.49,44.46,1.00,8.73,2.32
457843,-1.35,-7.93,43.26,0.94,8.73,2.25
457878,-4.14,-6.86,40.32,0.86,8.73,2.20
457913,-5.00,-5.02,36.68,0.80,8.73,2.17
457948,-5.65,-3.93,32.93,0.76,8.73,2.09
457983,-3.50,-3.91,29.74,0.75,8.73,2.03
458018,-1.35,-4.46,26.70,0.81,8.73,2.01
458053,1.92,-4.84,26.26,0.82,8.73,2.05
458088,5.87,-4.61,26.38,0.80,8.73,2.08
458123,9.75,-5.16,27.18,0.83,8.73,2.05
458158,12.11,-4.96,29.01,0.83,8.73,2.04
458193,13.37,-5.32,33.83,0.84,8.73,2.00
458228,13.48,-6.11,37.99,0.94,8.73,1.97
458263,12.38,-7.53,41.65,1.03,8.73,1.99
458298,9.48,-7.01,43.72,1.09,8.73,2.04
458333,5.15,-8.21,43.59,1.09,8.73,2.12
458369,0.91,-8.23,45.22,1.05,8.73,2.13
458403,-1.53,-6.83,41.27,1.13,8.73,2.10
458438,-3.71,-6.60,38.04,1.16,8.73,2.09
458473,-6.90,-8.76,35.06,1.19,8.73,2.14
458508,-5.88,-6.99,31.75,1.20,8.73,2.28
458543,-3.91,-7.54,27.65,1.21,8.73,2.45
458578,-1.59,-8.28,25.20,1.03,8.73,2.42
458613,2.21,-6.86,25.12,0.93,8.73,2.40
458648,6.82,-6.63,24.91,0.85,8.73,2.26
458683,10.75,-6.04,26.97,0.84,8.73,2.18
458718,11.84,-7.71,31.72,0.86,8.73,2.14
458753,13.81,-6.52,36.21,0.83,8.73,2.07
458788,13.41,-7.84,39.76,0.86,8.73,2.06
458823,10.42,-7.56,42.39,0.86,8.73,1.99
458858,6.66,-7.82,43.96,0.90,8.73,1.99
458893,3.20,-8.23,44.22,0.90,8.73,2.10
458928,0.02,-6.82,42.40,0.79,8.73,2.16
458963,-3.22,-6.67,40.32,0.70,8.73,2.14
458998,-4.37,-4.63,37.06,0.64,8.73,2.08
459033,-5.68,-2.09,34.79,0.67,8.73,1.99
459068,-4.82,-3.85,31.05,0.95,8.73,2.11
459103,-3.85,-6.47,27.98,1.12,8.73,2.40
459138,-1.17,-8.86,25.31,1.07,8.73,2.66
459173,4.74,-10.05,26.21,0.81,8.73,2.76
459213,9.76,-8.37,26.68,0.68,8.73,2.59
459248,11.50,-5.20,29.37,0.77,8.73,2.37
459283,12.74,-5.36,33.53,0.92,8.73,2.28
459318,15.02,-6.67,37.15,1.01,8.73,2.37
459353,12.13,-8.38,39.97,0.97,8.73,2.47
459388,8.74,-9.02,42.47,0.87,8.73,2.52
459423,5.38,-9.20,43.83,0.70,8.73,2.47
459458,1.30,-8.30,44.72,0.60,8.73,2.32
459493,-0.92,-5.42,41.71,0.62,8.73,2.15
459528,-3.60,-6.45,39.45,0.71,8.73,2.01
459563,-4.59,-4.23,36.65,0.77,8.73,1.95
459598,-5.70,-4.31,32.72,0.73,8.73,1.84
459633,-5.33,-1.80,29.68,0.82,8.73,1.72
459668,-1.96,-1.04,27.13,0.92,8.73,1.62
459703,2.82,-1.27,26.13,1.07,8.73,1.60
459738,7.88,-0.66,25.44,1.25,8.73,1.59
459773,11.88,-2.10,27.63,1.42,8.73,1.66
459808,13.08,-4.79,31.64,1.46,8.73,1.83
459843,13.67,-6.59,34.75,1.40,8.73,1.96
459878,13.13,-9.13,38.00,1.34,8.73,2.02
459913,11.75,-7.67,41.87,1.32,8.73,2.09
459948,7.40,-9.20,43.53,1.27,8.73,2.16
459983,3.95,-7.84,45.76,1.20,8.73,2.18
460018,-0.07,-8.87,45.01,1.10,8.73,2.23
460053,-3.44,-7.31,42.71,1.10,8.73,2.21
460088,-5.29,-8.10,39.01,1.07,8.73,2.24
460123,-5.72,-9.11,35.05,0.90,8.73,2.25
460158,-3.28,-6.85,31.45,0.76,8.73,2.20
460193,-1.98,-2.49,27.05,0.68,8.73,2.08
460228,3.15,-2.08,26.25,0.70,8.73,1.89
460263,8.45,-5.40,27.33,0.72,8.73,1.93
460298,10.22,-9.29,26.14,0.54,8.73,2.10
460334,11.50,-8.15,26.02,0.30,8.73,2.07
460369,11.60,-8.04,30.79,0.15,8.73,1.85
460403,13.15,-5.00,34.46,0.25,8.73,1.53
460438,12.63,-3.52,38.55,0.58,8.73,1.40
460473,10.55,-4.03,42.70,0.92,8.73,1.51
460508,6.68,-5.40,45.26,1.12,8.73,1.58
460543,2.44,-7.15,46.23,1.27,8.73,1.73
460578,-0.25,-6.38,42.32,1.35,8.73,1.85
460614,-3.00,-6.53,38.31,1.45,8.73,1.91
460648,-5.11,-6.81,35.33,1.53,8.73,2.05
460683,-5.62,-7.13,32.46,1.52,8.73,2.19
460718,-4.83,-5.58,29.05,1.33,8.73,2.25
460753,-2.26,-5.63,25.92,1.20,8.73,2.15
460788,4.01,-5.53,26.00,1.10,8.73,2.12
460823,8.21,-5.84,25.59,1.02,8.73,2.17
460858,10.33,-7.49,25.41,0.85,8.73,2.27
460893,11.75,-7.41,28.68,0.71,8.73,2.27
460928,12.79,-6.33,32.54,0.59,8.73,2.19
460963,12.36,-6.83,36.99,0.61,8.73,2.08
460998,12.50,-6.98,42.66,0.70,8.73,2.07
461033,8.46,-6.10,43.54,0.73,8.73,1.96
461068,5.16,-7.00,44.03,0.75,8.73,1.95
461103,1.03,-6.83,44.78,0.69,8.73,1.98
461139,-1.48,-4.60,41.36,0.75,8.73,1.93
461173,-5.23,-4.61,39.76,0.78,8.73,1.86
461208,-4.72,-3.78,35.33,0.83,8.73,1.77
461248,-6.31,-1.92,30.92,0.92,8.73,1.68
461283,-1.81,-0.26,27.34,1.03,8.73,1.63
461317,-0.70,-3.64,25.15,1.14,8.73,1.72
461352,2.71,-4.34,25.12,1.21,8.73,1.90
461387,8.02,-5.80,23.85,1.18,8.73,2.00
461422,10.27,-4.70,24.84,1.23,8.73,2.02
461457,11.91,-5.81,29.69,1.27,8.73,2.10
461492,13.15,-5.04,32.93,1.28,8.73,2.14
461527,12.79,-7.25,36.84,1.30,8.73,2.30
461562,10.90,-7.81,40.65,1.18,8.73,2.40
461597,7.32,-10.13,43.36,1.06,8.73,2.40
461632,4.08,-8.48,42.50,0.99,8.73,2.30
461667,0.12,-9.34,41.32,0.98,8.73,2.22
461702,-2.99,-6.24,39.19,0.96,8.73,2.17
461737,-5.57,-6.85,36.22,0.92,8.73,2.12
461772,-6.78,-5.17,33.35,0.92,8.73,2.09
461807,-5.00,-5.62,29.58,0.89,8.73,2.10
461843,-4.02,-5.50,23.98,0.93,8.73,2.17
461877,-0.17,-6.41,23.20,0.90,8.73,2.15
461912,3.13,-6.41,23.38,0.84,8.73,2.22
461947,5.77,-3.81,23.24,0.86,8.73,2.05
461982,9.03,-0.69,25.04,1.03,8.73,1.92
462017,12.49,-2.46,29.26,1.25,8.73,1.90
462052,12.92,-6.15,32.83,1.20,8.73,1.96
462087,13.81,-7.14,36.86,1.11,8.73,1.98
462122,11.15,-8.20,39.49,1.02,8.73,1.90
462157,7.80,-6.19,41.62,0.99,8.73,1.64
462192,3.91,-7.24,42.04,1.10,8.73,1.57
462227,0.58,-6.28,41.11,1.16,8.73,1.71
462262,-2.44,-7.20,39.48,1.13,8.73,1.86
462298,-5.17,-6.58,36.85,1.06,8.73,1.94
462333,-6.31,-5.90,33.55,1.03,8.73,1.99
462368,-5.62,-4.35,29.75,0.92,8.73,1.95
462402,-3.25,-2.68,26.01,0.87,8.73,1.89
462437,-0.45,-2.51,23.71,0.85,8.73,1.85
462472,2.60,-2.79,23.67,0.87,8.73,1.81
462507,6.75,-4.44,22.85,0.90,8.73,1.88
462542,10.06,-4.99,23.64,0.84,8.73,1.89
462577,12.84,-6.93,27.64,0.74,8.73,1.86
462612,14.05,-6.93,30.30,0.48,8.73,1.76
462646,13.94,-7.85,33.27,0.40,8.73,1.52
462681,11.53,-5.46,36.12,0.58,8.73,1.33
462716,8.68,-3.39,39.35,0.78,8.73,1.28
462751,6.13,-5.92,40.51,1.00,8.73,1.43
462786,1.84,-6.45,43.05,1.06,8.73,1.72
462821,-1.29,-5.88,39.62,1.08,8.73,1.84
462856,-3.85,-4.15,38.09,1.18,8.73,1.85
462891,-5.93,-3.46,35.20,1.35,8.73,1.90
462926,-6.37,-5.77,30.47,1.54,8.73,2.04
462961,-4.05,-7.56,27.39,1.51,8.73,2.24
462996,-4.92,-7.41,23.92,1.38,8.73,2.34
463031,-0.39,-5.27,23.41,1.25,8.73,2.29
463066,5.83,-3.20,23.92,1.17,8.73,2.15
463101,10.64,-0.91,24.37,1.33,8.73,2.00
463136,12.97,-3.96,27.02,1.49,8.73,2.06
463171,14.41,-5.83,28.03,1.40,8.73,2.15
463206,13.80,-7.01,30.98,1.28,8.73,2.23
463241,11.79,-9.33,33.25,1.11,8.73,2.25
463281,9.49,-7.84,37.46,0.89,8.73,2.01
463316,6.24,-8.39,39.59,0.90,8.73,1.86
463351,3.33,-5.17,40.47,1.03,8.73,1.70
463386,-0.04,-5.39,39.04,1.22,8.73,1.66
463421,-3.52,-6.57,37.76,1.35,8.73,1.72
463456,-4.48,-6.52,34.43,1.44,8.73,1.82
463491,-7.32,-6.80,31.39,1.41,8.73,1.92
463525,-7.72,-4.33,28.04,1.26,8.73,1.95
463560,-4.61,-4.23,24.68,1.24,8.73,1.93
463594,0.76,-1.58,21.96,1.22,8.73,1.80
463630,5.21,-0.76,21.71,1.24,8.73,1.67
463664,8.32,-1.92,21.27,1.40,8.73,1.64
463699,8.96,1.26,21.59,1.53,8.73,1.67
463733,10.02,-2.30,23.71,1.82,8.73,1.82
463768,11.26,-6.51,26.47,1.78,8.73,2.11
463803,13.82,-9.93,32.78,1.45,8.73,2.28
463838,10.66,-15.94,33.73,1.17,8.73,2.25
463873,9.23,-6.78,38.49,0.94,8.73,1.96
463908,6.90,-5.44,39.36,0.93,8.73,1.77
463943,2.56,-9.47,40.25,0.88,8.73,1.92
463978,-0.14,-7.49,39.32,0.74,8.73,2.02
464013,-3.03,-7.45,36.77,0.71,8.73,1.94
464048,-4.29,-3.78,33.83,0.61,8.73,1.83
464083,-6.42,-2.38,30.67,0.74,8.73,1.73
464118,-4.42,-2.35,27.19,0.98,8.73,1.69
464153,-3.23,-1.64,23.50,1.14,8.73,1.74
464188,-0.15,-4.63,21.10,1.24,8.73,1.86
464223,3.57,-4.24,20.56,1.27,8.73,1.97
464258,7.23,-2.90,20.37,1.38,8.73,1.90
464293,9.70,-2.98,23.41,1.61,8.73,1.90
464329,12.21,-2.81,26.51,1.82,8.73,2.09
464364,12.79,-7.34,29.99,1.88,8.73,2.43
464398,11.47,-11.71,33.74,1.69,8.73,2.73
464433,10.93,-12.14,37.83,1.36,8.73,2.90
464468,9.00,-11.89,40.40,0.97,8.73,2.87
464503,4.06,-13.36,41.69,0.67,8.73,2.84
464538,0.08,-12.33,41.39,0.28,8.73,2.83
464573,-3.43,-9.39,41.78,-0.33,8.73,2.72
464608,-6.81,-4.83,42.52,-0.63,8.73,2.31
464643,-6.71,-3.35,39.23,-0.51,8.73,1.82
464678,-5.80,1.56,34.58,-0.21,8.73,1.35
464713,-4.71,2.24,29.93,0.22,8.73,1.11
464748,0.78,3.89,27.59,0.74,8.73,0.86
464783,1.93,2.73,28.36,1.19,8.73,1.03
464819,9.27,1.71,29.36,1.63,8.73,1.22
464854,13.96,-4.92,33.36,2.01,8.73,1.53
464888,14.39,-8.74,38.71,1.97,8.73,1.93
464923,14.99,-10.90,41.61,1.74,8.73,2.12
464958,12.11,-11.92,44.24,1.59,8.73,2.23
464993,7.29,-11.85,45.62,1.44,8.73,2.27
465028,3.88,-12.54,46.46,1.32,8.73,2.29
465063,0.00,-10.65,44.95,1.24,8.73,2.30
465098,-2.89,-10.53,40.11,0.99,8.73,2.25
465133,-3.89,-8.33,36.08,0.67,8.73,2.15
465168,-4.08,-5.50,32.59,0.37,8.73,1.85
465203,-6.15,-0.85,31.30,0.24,8.73,1.49
465238,-2.26,0.63,28.56,0.48,8.73,1.26
465273,-0.90,0.93,25.83,0.80,8.73,1.16
465313,6.05,-3.09,27.93,1.13,8.73,1.44
465349,11.38,-5.94,28.66,1.17,8.73,1.77
465384,14.76,-6.14,31.14,1.27,8.73,1.91
465418,13.66,-6.41,33.69,1.50,8.73,2.02
465453,13.41,-8.25,35.56,1.61,8.73,2.28
465488,12.45,-11.53,38.91,1.56,8.73,2.69
465523,8.84,-13.27,42.72,1.35,8.73,3.00
465558,4.87,-14.44,45.47,0.94,8.73,3.15
465593,1.05,-15.38,44.23,0.52,8.73,3.16
465628,-3.96,-10.77,45.29,0.07,8.73,2.93
465663,-6.43,-6.82,44.19,-0.22,8.73,2.56
465698,-6.09,-0.46,40.59,-0.19,8.73,2.07
465733,-5.13,-1.89,35.19,0.22,8.73,1.86
465769,0.63,-2.24,30.77,0.52,8.73,1.74
465803,7.30,-3.85,28.95,0.78,8.73,1.66
465839,7.82,-3.10,27.90,0.97,8.73,1.64
465873,9.64,-2.92,29.22,1.27,8.73,1.59
465908,12.01,-3.72,31.53,1.60,8.73,1.71
465943,13.66,-6.51,34.93,1.88,8.73,1.99
465978,13.12,-9.85,39.26,1.81,8.73,2.34
466013,12.16,-11.13,43.46,1.56,8.73,2.59
466048,8.00,-12.74,45.86,1.31,8.73,2.72
466083,3.72,-12.21,44.32,0.95,8.73,2.71
466118,-0.01,-13.22,44.86,0.78,8.73,2.70
466153,-2.17,-11.99,39.69,0.51,8.73,2.60
466188,-6.07,-8.45,40.29,0.34,8.73,2.42
466223,-4.79,-5.61,36.16,0.40,8.73,2.14
466258,-5.32,-2.36,33.18,0.50,8.73,1.94
466292,-0.90,-2.96,29.30,0.71,8.73,1.76
466328,3.73,-1.41,27.50,0.95,8.73,1.50
466363,7.92,-0.45,28.32,1.24,8.73,1.44
466397,9.79,-0.19,27.12,1.61,8.73,1.50
466432,10.45,-1.55,32.60,2.09,8.73,1.68
466467,12.92,-7.32,34.85,2.24,8.73,2.10
466502,15.45,-9.94,39.24,2.32,8.73,2.60
466537,11.58,-13.97,42.60,2.03,8.73,3.04
466571,7.13,-15.19,46.88,1.58,8.73,3.03
466606,3.16,-14.00,48.18,1.13,8.73,2.99
466641,0.20,-12.47,45.03,0.87,8.73,2.94
466675,-3.21,-10.92,41.66,0.65,8.73,2.72
466710,-6.28,-9.21,40.30,0.32,8.73,2.52
466746,-5.25,-4.79,37.09,0.25,8.73,2.21
466780,-5.26,-3.91,31.73,0.42,8.73,2.04
466815,-1.57,-4.33,29.86,0.58,8.73,1.95
466851,5.88,-4.32,29.53,0.71,8.73,1.87
466885,9.70,-4.40,26.48,0.85,8.73,1.82
466921,11.65,-2.19,29.77,1.13,8.73,1.77
466955,11.81,-6.01,32.23,1.23,8.73,1.94
466989,13.95,-10.51,34.98,1.17,8.73,2.10
467024,13.34,-10.89,39.45,1.04,8.73,2.10
467059,11.20,-8.68,41.75,1.16,8.73,2.32
467094,6.71,-12.91,43.05,1.29,8.73,2.99
467129,3.29,-15.38,41.74,0.64,8.73,3.99
467164,-1.66,-9.04,49.08,0.00,8.73,3.70
467199,-5.86,-4.63,49.06,0.32,8.73,2.76
467234,-3.53,-7.44,39.16,1.08,8.73,2.40
467269,-3.80,-16.47,31.34,1.50,8.73,2.69
467304,-0.19,-11.13,26.39,1.29,8.73,2.78
467344,2.87,-5.56,23.23,1.07,8.73,2.40
467380,0.32,-1.11,24.20,1.05,8.73,1.87
467414,2.53,4.80,23.39,1.45,8.73,1.28
467449,6.95,-0.52,25.13,1.92,8.73,1.31
467484,12.41,-0.53,27.37,2.28,8.73,1.62
467519,11.38,-12.50,32.33,1.99,8.73,2.11
467554,14.38,-8.25,37.57,1.61,8.73,2.26
467588,12.27,-11.99,40.90,1.49,8.73,2.39
467623,8.41,-12.37,42.87,1.34,8.73,2.38
467658,5.18,-12.25,44.41,1.17,8.73,2.76
467693,1.24,-12.19,44.03,0.61,8.73,2.98
467728,-1.93,-9.48,41.32,0.36,8.73,2.62
467763,-6.69,-8.51,40.97,-0.20,8.73,2.36
467798,-5.48,-2.65,36.70,-0.31,8.73,1.97
467833,-8.35,0.80,34.08,-0.46,8.73,1.39
467868,-6.43,8.64,32.75,-0.09,8.73,0.96
467903,-0.78,0.81,27.29,0.53,8.73,1.23
467938,5.51,1.20,28.36,0.87,8.73,1.20
467973,13.05,-5.08,29.84,1.02,8.73,1.45
468008,14.06,-4.63,29.12,1.13,8.73,1.49
468043,14.81,-0.87,31.83,1.46,8.73,1.60
468078,13.21,-7.70,35.53,1.56,8.73,1.87
468113,12.39,-8.93,38.66,1.31,8.73,1.91
468148,9.99,-10.86,41.64,1.27,8.73,2.03
468183,4.88,-10.51,39.59,1.30,8.73,1.97
468218,2.39,-9.45,43.19,1.23,8.73,2.06
468253,-1.40,-11.38,37.23,1.16,8.73,2.15
468288,-3.49,-8.83,34.06,1.01,8.73,2.19
468322,-7.26,-6.13,33.55,0.70,8.73,2.07
468358,-4.31,-7.56,28.44,0.61,8.73,1.94
468392,-7.19,-3.00,27.53,0.39,8.73,1.67
468427,-3.58,-1.15,24.88,0.55,8.73,1.58
468462,-2.13,0.73,20.34,0.71,8.73,1.41
468497,3.72,0.57,22.04,0.94,8.73,1.22
468532,9.95,-0.12,22.91,1.18,8.73,1.17
468567,12.82,-0.21,21.75,1.48,8.73,1.23
468603,11.68,-4.67,25.63,1.57,8.73,1.51
468637,12.66,-7.96,28.67,1.46,8.73,1.74
468672,12.29,-9.14,32.55,1.25,8.73,1.83
468707,11.58,-8.85,36.99,1.08,8.73,1.86
468742,7.79,-9.19,37.49,1.03,8.73,2.01
468777,3.97,-7.40,38.17,1.05,8.73,2.18
468812,0.35,-10.20,40.68,0.78,8.73,2.39
468847,-3.25,-9.50,39.62,0.55,8.73,2.49
468882,-4.18,-7.03,36.56,0.50,8.73,2.41
468916,-7.98,-6.63,34.89,0.45,8.73,2.29
468950,-7.03,-5.20,31.71,0.40,8.73,2.18
468985,-2.51,-6.39,26.82,0.50,8.73,2.13
469020,-0.15,-2.75,22.17,0.52,8.73,2.06
469055,4.30,-4.80,20.79,0.49,8.73,1.89
469090,4.44,-5.09,20.16,0.45,8.73,1.93
469125,7.78,-5.26,22.69,0.43,8.73,1.87
469160,11.32,-3.78,23.58,0.59,8.73,1.66
469195,12.28,-4.29,27.38,0.66,8.73,1.57
469229,13.21,-3.30,30.76,0.89,8.73,1.54
469264,11.88,-5.20,34.53,1.13,8.73,1.58
469299,11.09,-7.16,37.18,1.10,8.73,1.50
469335,7.33,-5.64,39.91,1.21,8.73,1.50
469374,3.60,-5.87,42.76,1.35,8.73,1.53
469409,0.14,-7.05,43.14,1.43,8.73,1.63
469444,-3.70,-8.95,41.06,1.47,8.73,1.84
469479,-4.53,-6.88,35.95,1.30,8.73,1.97
469514,-6.58,-5.23,31.90,1.15,8.73,1.96
469549,-4.23,-3.14,28.69,1.03,8.73,1.95
469584,-4.39,-5.04,25.07,1.05,8.73,2.03
469619,0.73,-4.61,23.46,1.08,8.73,2.18
469654,3.65,-5.63,22.95,1.01,8.73,2.33
469689,6.35,-7.43,23.20,0.98,8.73,2.34
469724,9.57,-4.86,25.48,0.99,8.73,2.24
469760,11.43,-5.55,28.60,1.01,8.73,2.19
469794,12.35,-5.20,33.31,1.04,8.73,2.25
469829,12.74,-7.75,36.90,1.01,8.73,2.30
469864,10.53,-8.39,40.35,0.97,8.73,2.35
469899,7.29,-9.09,44.59,0.87,8.73,2.41
469934,4.04,-8.54,46.59,0.79,8.73,2.38
469969,0.95,-8.33,42.74,0.76,8.73,2.33
470004,-3.11,-7.70,41.84,0.62,8.73,2.27
470039,-4.30,-4.08,39.17,0.60,8.73,2.16
470074,-5.75,-5.08,35.21,0.69,8.73,2.07
470109,-2.98,-4.26,31.39,0.82,8.73,2.07
470144,-2.67,-4.52,27.94,0.89,8.73,2.09
470179,2.61,-4.21,26.46,0.89,8.73,2.10
470213,6.87,-4.77,26.37,0.85,8.73,2.01
470248,8.05,-5.65,26.24,0.82,8.73,2.00
470283,11.54,-5.76,28.57,0.72,8.73,2.06
470318,12.78,-6.57,33.25,0.60,8.73,2.05
470353,13.11,-7.10,36.92,0.59,8.73,1.96
470388,12.51,-5.64,42.08,0.82,8.73,1.98
470423,9.85,-7.13,45.92,1.04,8.73,2.24
470458,5.96,-8.43,45.52,1.00,8.73,2.50
470493,1.66,-7.98,45.55,0.73,8.73,2.60
470527,-1.07,-6.56,44.51,0.57,8.73,2.49
470562,-3.59,-5.30,41.06,0.74,8.73,2.29
470597,-6.01,-3.87,38.24,1.01,8.73,2.23
470631,-5.92,-6.79,34.40,1.16,8.73,2.31
470666,-3.88,-8.58,28.56,1.24,8.73,2.53
470701,0.55,-8.92,26.47,1.07,8.73,2.62
470736,0.99,-8.08,25.31,0.87,8.73,2.57
470771,6.12,-7.73,27.43,0.76,8.73,2.50
470806,10.41,-6.05,28.53,0.77,8.73,2.35
470841,11.93,-7.07,33.09,0.85,8.73,2.24
470876,13.81,-6.33,37.68,0.90,8.73,2.19
470911,13.60,-8.55,41.51,0.95,8.73,2.18
470946,9.73,-8.32,44.32,0.94,8.73,2.13
470981,6.63,-9.36,45.35,0.96,8.73,2.23
471016,3.20,-8.66,47.03,0.88,8.73,2.32
471051,-0.55,-8.88,45.11,0.77,8.73,2.34
471086,-3.58,-5.18,41.54,0.69,8.73,2.30
471121,-4.65,-4.75,38.57,0.70,8.73,2.18
471156,-7.53,-5.60,35.28,0.83,8.73,2.13
471191,-2.76,-5.04,31.57,0.94,8.73,2.20
471226,-1.46,-5.15,26.98,0.98,8.73,2.22
471261,2.28,-5.96,26.78,0.97,8.73,2.27
471296,7.66,-4.46,28.51,0.95,8.73,2.17
471332,11.41,-4.58,29.83,1.01,8.73,2.08
471366,12.97,-4.30,32.13,1.05,8.73,2.05
471406,13.84,-6.56,35.99,1.05,8.73,2.05
471441,12.44,-7.80,39.86,1.05,8.73,2.04
471476,11.32,-7.99,42.78,1.00,8.73,1.94
471510,8.00,-6.65,45.43,1.01,8.73,1.85
471544,4.02,-7.53,45.42,1.17,8.73,1.69
471579,0.59,-5.53,46.05,1.42,8.73,1.62
471614,-3.31,-7.93,44.40,1.54,8.73,1.80
471650,-5.40,-7.37,40.98,1.63,8.73,1.97
471684,-6.27,-7.44,36.91,1.58,8.73,2.15
471719,-5.28,-8.53,32.69,1.43,8.73,2.22
471754,-3.08,-5.52,29.01,1.30,8.73,2.18
471789,1.37,-3.28,27.61,1.30,8.73,2.09
471824,6.48,-2.14,28.17,1.37,8.73,2.00
471859,9.12,-2.55,28.83,1.52,8.73,2.04
471894,12.37,-5.94,30.10,1.62,8.73,2.18
471929,13.86,-7.97,34.87,1.59,8.73,2.32
471964,13.00,-8.66,38.15,1.53,8.73,2.43
471998,12.68,-10.60,41.13,1.33,8.73,2.45
472033,8.37,-8.93,43.90,1.21,8.73,2.41
472068,5.58,-9.19,45.00,1.10,8.73,2.25
472103,2.07,-8.22,44.60,1.12,8.73,2.13
472138,-2.24,-8.51,43.41,1.17,8.73,2.10
472173,-3.62,-7.87,40.48,1.22,8.73,2.11
472208,-4.55,-7.75,36.11,1.17,8.73,2.15
472243,-3.50,-5.73,32.88,1.04,8.73,2.11
472278,-0.95,-4.28,29.08,1.02,8.73,2.04
472312,-0.73,-2.29,27.46,1.01,8.73,1.87
472348,3.29,-2.74,27.39,1.12,8.73,1.85
472382,7.54,-3.79,26.67,1.18,8.73,1.89
472417,12.39,-5.25,28.71,1.18,8.73,2.04
472452,13.32,-7.13,32.40,1.15,8.73,2.12
472487,12.04,-6.79,34.70,1.17,8.73,2.12
472522,12.38,-10.13,39.16,1.22,8.73,2.20
472557,10.49,-7.95,42.66,1.16,8.73,2.23
472592,6.38,-9.72,44.34,1.10,8.73,2.23
472627,3.64,-8.43,46.33,1.23,8.73,2.15
472662,0.12,-9.00,45.40,1.33,8.73,2.12
472698,-3.27,-7.76,42.48,1.44,8.73,2.15
472731,-4.61,-8.71,37.77,1.54,8.73,2.25
472766,-7.09,-9.56,33.75,1.57,8.73,2.40
472801,-5.78,-8.67,30.75,1.39,8.73,2.54
472837,-2.13,-7.84,26.80,1.18,8.73,2.52
472871,2.83,-5.87,26.03,1.05,8.73,2.37
472906,7.88,-5.64,26.62,1.03,8.73,2.19
472941,11.26,-4.84,26.76,1.05,8.73,2.13
472976,12.48,-6.95,28.97,1.08,8.73,2.14
473011,11.75,-4.98,32.92,1.07,8.73,2.21
473046,13.69,-8.60,36.66,1.16,8.73,2.29
473081,12.66,-8.50,40.48,1.10,8.73,2.42
473116,8.44,-8.94,43.30,1.07,8.73,2.59
473151,5.03,-9.65,45.10,0.92,8.73,2.56
473186,1.05,-8.64,45.89,0.78,8.73,2.47
473221,-0.82,-6.27,40.53,0.80,8.73,2.31
473256,-5.00,-5.74,39.46,0.95,8.73,2.18
473291,-5.57,-6.02,35.61,1.12,8.73,2.21
473326,-3.69,-6.57,30.44,1.20,8.73,2.30
473362,-0.40,-6.84,27.40,1.19,8.73,2.44
473396,-1.52,-8.80,24.50,1.06,8.73,2.53
473436,1.61,-8.40,24.29,0.87,8.73,2.51
473471,6.52,-7.55,26.16,0.73,8.73,2.50
473506,8.37,-5.64,26.74,0.76,8.73,2.33
473541,11.64,-7.25,32.01,0.79,8.73,2.25
473576,13.68,-6.91,36.97,0.75,8.73,2.18
473611,13.23,-7.92,40.94,0.86,8.73,2.19
473646,10.70,-7.00,44.88,0.88,8.73,2.19
473681,6.23,-8.31,43.87,0.87,8.73,2.26
473716,2.52,-8.09,44.09,0.75,8.73,2.29
473751,-0.36,-8.09,41.98,0.59,8.73,2.23
473786,-4.75,-5.89,42.57,0.55,8.73,2.12
473821,-4.92,-3.55,38.86,0.52,8.73,2.00
473856,-8.96,-4.55,36.27,0.60,8.73,1.87
473891,-5.15,-2.14,33.21,0.67,8.73,1.76
473926,-2.44,-0.61,28.24,0.86,8.73,1.68
473961,3.42,-2.67,27.67,1.03,8.73,1.70
473996,7.23,-3.08,26.87,1.09,8.73,1.84
474031,10.37,-4.09,27.58,1.18,8.73,1.92
474066,13.96,-7.54,32.03,1.20,8.73,1.99
474101,14.44,-7.50,35.45,1.14,8.73,2.01
474136,14.10,-8.18,39.94,1.12,8.73,2.03
474171,11.44,-9.48,42.63,1.13,8.73,2.06
474206,8.53,-8.38,45.49,1.15,8.73,2.09
474241,4.78,-9.79,46.41,1.14,8.73,2.16
474276,0.71,-8.04,45.79,1.11,8.73,2.18
474311,-3.42,-8.15,43.39,1.09,8.73,2.16
474347,-6.22,-6.99,42.16,1.08,8.73,2.16
474381,-6.83,-7.85,38.44,1.08,8.73,2.17
474416,-6.80,-6.72,34.08,1.09,8.73,2.24
474451,-3.94,-5.79,30.59,1.01,8.73,2.25
474486,2.01,-5.19,27.65,0.95,8.73,2.18
474521,7.15,-4.68,27.99,0.91,8.73,2.19
474556,10.89,-5.81,28.85,0.88,8.73,2.18
474591,12.49,-7.10,31.52,0.94,8.73,2.11
474626,13.62,-5.91,33.59,1.00,8.73,2.08
474662,13.95,-5.50,38.03,1.09,8.73,2.09
474696,12.26,-7.93,42.23,1.16,8.73,2.18
474731,8.90,-9.58,44.56,1.16,8.73,2.21
474766,6.17,-8.72,44.78,1.15,8.73,2.13
474801,1.47,-8.66,47.93,1.17,8.73,2.13
474837,-2.74,-7.52,46.98,1.11,8.73,2.20
474871,-4.91,-7.55,43.81,1.02,8.73,2.23
474906,-7.01,-7.78,39.45,0.84,8.73,2.19
474941,-3.26,-2.87,35.27,0.75,8.73,2.04
474976,-0.55,-1.74,29.83,0.85,8.73,1.91
475011,2.89,-3.77,28.27,0.95,8.73,1.95
475045,3.81,-5.81,27.56,0.91,8.73,2.08
475080,5.91,-7.44,28.69,0.76,8.73,2.17
475115,9.88,-10.34,30.92,0.48,8.73,2.17
475150,12.30,-9.24,35.22,0.22,8.73,2.05
475185,11.38,-7.91,41.73,-0.02,8.73,1.67
475220,13.82,-6.80,47.31,0.26,8.73,1.34
475255,10.06,-4.84,51.06,0.62,8.73,1.20
475290,5.67,-5.95,53.83,1.06,8.73,1.49
475325,1.19,-9.98,56.05,1.19,8.73,1.91
475361,-2.94,-7.70,54.06,1.00,8.73,2.12
475395,-2.37,-6.21,45.96,0.94,8.73,2.10
475431,-3.70,-1.52,41.34,0.92,8.73,2.00
475470,-1.30,-2.94,37.25,1.09,8.73,2.00
475505,1.24,-3.25,34.96,1.23,8.73,2.11
475540,2.61,-2.89,35.29,1.30,8.73,2.17
475575,7.76,-3.79,35.43,1.47,8.73,2.23
475610,12.41,-3.77,40.52,1.61,8.73,2.28
475645,13.95,-9.57,43.59,1.66,8.73,2.45
475680,14.06,-10.56,49.14,1.59,8.73,2.51
475715,13.19,-10.74,53.63,1.29,8.73,2.58
475750,7.81,-10.71,55.14,1.22,8.73,2.51
475785,3.96,-11.25,56.80,1.21,8.73,2.47
475820,0.19,-7.79,55.48,1.19,8.73,2.48
475855,-3.06,-8.55,52.48,1.26,8.73,2.49
475890,-4.07,-12.02,47.50,1.35,8.73,2.54
475925,-3.06,-6.74,44.39,1.30,8.73,2.66
475961,-0.57,-9.42,38.33,1.22,8.73,2.71
475995,4.42,-9.99,36.05,1.12,8.73,2.71
476031,8.28,-8.23,37.13,1.06,8.73,2.60
476065,11.27,-4.31,38.58,1.06,8.73,2.49
476099,12.39,-7.43,41.45,1.21,8.73,2.46
476134,14.41,-8.41,47.21,1.27,8.73,2.41
476169,14.42,-9.61,52.62,1.20,8.73,2.48
476204,10.04,-9.76,55.22,1.20,8.73,2.44
476238,6.56,-10.25,55.96,1.20,8.73,2.34
476273,1.55,-8.87,55.91,1.24,8.73,2.31
476307,-1.26,-9.02,53.90,1.39,8.73,2.35
476342,-2.63,-9.20,48.31,1.30,8.73,2.44
476377,-4.60,-10.74,42.69,1.22,8.73,2.49
476412,-1.76,-3.84,39.86,1.03,8.73,2.44
476447,2.63,-6.11,36.25,0.92,8.73,2.37
476482,5.47,-5.62,35.18,1.03,8.73,2.34
476517,6.29,-4.92,35.80,0.93,8.73,2.34
476552,11.27,-10.80,38.69,0.95,8.73,2.34
476587,14.20,-6.29,44.67,0.87,8.73,2.25
476622,14.06,-7.38,49.55,0.85,8.73,2.18
476657,13.21,-8.95,53.20,1.05,8.73,2.06
476692,9.08,-7.63,54.83,1.14,8.73,1.93
476727,4.70,-7.58,56.61,1.36,8.73,1.96
476762,0.37,-9.09,54.08,1.53,8.73,2.06
476797,-3.37,-7.95,51.67,1.65,8.73,2.16
476832,-3.92,-8.69,46.91,1.73,8.73,2.40
476867,-6.68,-9.27,43.28,1.74,8.73,2.63
476902,-3.66,-11.53,40.05,1.60,8.73,2.86
476937,0.43,-11.22,37.54,1.35,8.73,2.99
476972,7.52,-10.33,38.54,1.22,8.73,2.97
477007,11.36,-10.57,39.70,1.15,8.73,2.81
477042,14.52,-7.80,43.00,1.09,8.73,2.73
477077,14.77,-9.71,47.22,1.10,8.73,2.71
477112,13.60,-10.19,50.97,1.14,8.73,2.69
477147,12.20,-9.18,55.28,1.00,8.73,2.75
477182,7.10,-9.90,53.73,0.93,8.73,2.72
477216,2.51,-10.01,54.09,0.82,8.73,2.65
477252,-0.75,-7.81,52.72,0.77,8.73,2.51
477286,-2.96,-6.91,48.74,0.90,8.73,2.37
477322,-4.27,-4.56,44.89,1.04,8.73,2.40
477357,-1.01,-6.21,40.62,1.29,8.73,2.52
477391,1.22,-8.32,35.83,1.24,8.73,2.63
477426,3.61,-9.01,33.75,1.12,8.73,2.64
477461,7.78,-8.09,32.51,1.02,8.73,2.48
477501,10.38,-8.61,36.42,1.01,8.73,2.42
477536,12.80,-10.50,42.56,0.91,8.73,2.38
477571,13.88,-8.74,47.01,0.85,8.73,2.32
477606,13.34,-7.86,51.77,0.81,8.73,2.27
477641,9.53,-8.88,53.50,0.85,8.73,2.24
477676,4.29,-10.46,56.01,0.93,8.73,2.28
477711,1.04,-9.42,57.15,0.92,8.73,2.37
477746,-0.81,-7.16,52.02,0.99,8.73,2.34
477781,-5.87,-7.26,49.40,1.03,8.73,2.28
477815,-4.04,-7.72,44.47,1.08,8.73,2.29
477850,-0.79,-6.26,39.64,1.11,8.73,2.30
477884,2.38,-6.17,35.87,1.08,8.73,2.42
477919,5.52,-10.28,36.53,1.07,8.73,2.60
477953,10.02,-8.03,37.44,0.89,8.73,2.59
477988,11.48,-11.26,37.85,0.76,8.73,2.53
478023,15.61,-6.71,44.14,0.76,8.73,2.34
478058,13.61,-8.49,48.76,0.79,8.73,2.27
478093,12.43,-9.50,52.22,0.92,8.73,2.23
478128,8.46,-9.02,54.28,0.91,8.73,2.21
478163,4.14,-9.33,53.70,0.81,8.73,2.30
478198,-0.20,-7.82,52.76,0.75,8.73,2.30
478233,-4.21,-6.61,50.21,0.68,8.73,2.22
478268,-2.60,-5.95,45.12,0.77,8.73,2.12
478303,-5.77,-1.91,42.78,0.82,8.73,1.98
478339,-3.86,-3.58,39.07,1.04,8.73,2.05
478374,2.48,-4.22,36.13,1.18,8.73,2.15
478408,7.05,-6.22,33.67,1.25,8.73,2.42
478443,10.55,-6.61,37.04,1.21,8.73,2.54
478478,12.66,-10.39,39.11,1.39,8.73,2.50
478513,14.53,-7.34,43.06,1.30,8.73,2.51
478548,13.76,-10.93,47.63,1.28,8.73,2.71
478583,12.46,-11.79,52.47,1.21,8.73,2.82
478618,7.70,-11.54,52.42,1.08,8.73,2.78
478653,2.45,-12.74,53.57,0.92,8.73,2.73
478688,-0.03,-8.03,51.71,0.94,8.73,2.51
478724,-2.88,-7.88,48.05,1.09,8.73,2.42
478758,-4.03,-7.75,44.99,1.21,8.73,2.39
478793,-2.35,-10.64,40.58,1.24,8.73,2.51
478829,-2.18,-8.15,35.46,1.20,8.73,2.48
478864,4.68,-7.26,36.12,1.11,8.73,2.44
478899,8.18,-4.54,33.86,1.25,8.73,2.27
478933,9.33,-3.02,32.73,1.35,8.73,2.30
478968,12.15,-7.06,40.30,1.57,8.73,2.42
479003,14.89,-9.96,43.74,1.53,8.73,2.62
479038,13.87,-12.34,48.36,1.42,8.73,2.79
479073,10.86,-12.93,52.28,1.26,8.73,2.86
479108,7.30,-11.81,52.84,1.06,8.73,2.77
479143,1.92,-11.87,54.19,0.95,8.73,2.62
479178,-1.91,-10.43,52.32,0.85,8.73,2.50
479213,-2.62,-7.45,47.07,0.87,8.73,2.33
479248,-4.50,-3.82,42.88,0.86,8.73,2.11
479283,-3.06,-4.59,39.13,0.94,8.73,1.97
479319,-0.56,-2.17,35.81,1.07,8.73,1.81
479353,2.94,-4.42,35.10,1.28,8.73,1.88
479388,7.29,-4.31,37.76,1.45,8.73,1.98
479423,12.20,-7.58,36.92,1.63,8.73,2.13
479458,14.32,-7.10,42.13,1.71,8.73,2.34
479494,15.05,-10.57,46.17,1.62,8.73,2.58
479533,12.94,-12.53,50.51,1.33,8.73,2.71
479568,10.81,-12.53,52.83,1.15,8.73,2.68
479603,4.55,-13.27,53.99,0.95,8.73,2.61
479638,0.10,-11.22,55.08,0.90,8.73,2.51
479673,-0.92,-9.96,48.53,0.78,8.73,2.38
479708,-4.48,-8.49,45.26,0.53,8.73,2.13
479743,-7.80,-3.25,42.72,0.30,8.73,1.72
479778,-4.35,4.79,41.50,0.45,8.73,1.13
479813,1.74,6.45,39.36,0.99,8.73,0.93
479848,6.39,4.82,38.05,1.61,8.73,1.00
479883,11.40,-0.16,39.91,2.11,8.73,1.35
479918,13.85,-5.50,45.46,2.21,8.73,1.86
479953,16.47,-12.28,48.58,2.04,8.73,2.23
479988,14.50,-14.48,54.76,1.75,8.73,2.28
480023,10.85,-12.44,55.76,1.36,8.73,1.93
480058,7.40,-11.13,52.06,1.49,8.73,1.68
480093,2.75,-10.10,49.73,1.72,8.73,1.59
480128,-3.57,-16.16,49.36,1.68,8.73,1.94
480163,0.06,-11.28,43.57,1.24,8.73,2.19
480198,-6.45,-5.47,41.00,0.86,8.73,1.91
480233,-2.64,-0.25,39.33,0.74,8.73,1.54
480268,-3.52,1.18,35.01,0.92,8.73,1.11
480303,1.60,1.89,34.97,1.46,8.73,1.20
480339,10.40,-1.05,38.12,1.77,8.73,1.68
480373,15.29,-3.76,40.33,2.35,8.73,1.89
480408,14.83,-5.04,41.14,2.65,8.73,2.32
480443,13.80,-7.65,46.79,2.66,8.73,3.10
480478,12.74,-19.82,53.00,2.42,8.73,3.73
480513,9.49,-19.00,59.71,1.83,8.73,3.98
480548,3.98,-15.14,62.08,1.09,8.73,3.70
480583,-3.15,-16.47,59.57,0.91,8.73,3.35
480618,-2.99,-12.73,54.41,0.65,8.73,3.09
480653,-2.70,-10.29,47.82,0.34,8.73,2.69
480688,-3.73,-2.06,43.97,0.35,8.73,2.32
480723,0.55,-5.04,39.34,0.55,8.73,2.01
480758,8.79,-5.99,36.94,0.75,8.73,2.09
480793,13.99,-7.43,32.99,0.82,8.73,2.19
480828,14.37,-9.30,40.87,0.92,8.73,2.09
480863,15.85,-6.65,40.86,1.19,8.73,2.08
480898,13.56,-8.32,42.26,1.39,8.73,2.23
480933,12.17,-10.86,46.07,1.56,8.73,2.62
480968,10.73,-14.51,51.51,1.40,8.73,2.92
481003,6.35,-14.42,49.75,1.07,8.73,3.24
481038,0.16,-13.21,53.66,0.71,8.73,2.99
481073,-2.10,-10.76,50.57,0.46,8.73,2.74
481108,-2.63,-7.91,45.14,0.61,8.73,2.38
481143,-7.55,-9.21,41.63,0.60,8.73,2.16
481178,-6.10,-3.65,39.97,0.59,8.73,1.92
481213,-0.64,-2.33,35.75,0.67,8.73,1.68
481248,3.56,1.06,33.38,1.13,8.73,1.41
481283,12.26,0.87,35.97,1.55,8.73,1.47
481319,15.24,-1.23,38.21,2.02,8.73,1.70
481353,14.05,-3.58,41.27,2.26,8.73,2.11
481388,14.04,-12.48,44.53,2.18,8.73,2.62
481423,12.26,-16.54,50.08,1.93,8.73,2.82
481458,10.87,-14.41,54.99,1.61,8.73,2.87
481493,3.49,-13.75,52.99,1.20,8.73,2.85
481528,0.41,-14.49,50.93,0.98,8.73,2.85
481568,-2.96,-11.09,47.72,0.55,8.73,2.78
481603,-5.66,-10.07,45.14,0.39,8.73,2.49
481638,-4.15,-1.01,41.87,0.36,8.73,2.09
481673,-2.23,-2.83,38.56,0.54,8.73,1.82
481708,1.20,-0.81,33.95,0.86,8.73,1.61
481743,9.22,-1.87,33.79,1.06,8.73,1.73
481778,12.46,-7.41,34.44,1.20,8.73,1.90
481813,14.53,-5.96,35.84,1.29,8.73,2.01
481848,14.20,-6.88,39.44,1.56,8.73,2.16
481883,13.35,-10.63,42.37,1.72,8.73,2.56
481918,12.28,-11.87,47.36,1.49,8.73,2.90
481953,7.57,-13.77,48.92,1.21,8.73,3.24
481987,2.82,-14.68,51.87,0.61,8.73,3.22
482022,-0.45,-14.94,45.51,0.16,8.73,3.12
482057,-5.36,-7.93,46.33,-0.11,8.73,2.69
482092,-10.60,-9.66,46.28,-0.15,8.73,2.37
482127,-7.75,0.90,45.20,0.18,8.73,2.00
482162,-0.84,-2.49,38.25,0.46,8.73,1.80
482197,6.45,0.69,32.55,0.89,8.73,1.40
482232,9.28,1.47,33.72,1.19,8.73,1.28
482267,9.96,-2.31,31.63,1.63,8.73,1.49
482302,12.51,-1.56,37.31,2.02,8.73,1.74
482337,14.37,-7.15,41.50,2.23,8.73,2.13
482372,15.49,-12.13,46.89,2.07,8.73,2.45
482407,10.79,-13.01,47.85,1.91,8.73,2.71
482442,6.50,-14.77,49.30,1.63,8.73,2.94
482477,2.26,-14.63,47.67,1.24,8.73,3.03
482512,-1.06,-8.53,50.28,1.07,8.73,2.77
482547,-4.61,-12.46,46.03,1.22,8.73,2.57
482582,-3.19,-10.76,37.60,1.09,8.73,2.51
482617,-3.23,-9.04,33.32,1.00,8.73,2.36
482652,-1.01,-6.18,29.25,0.76,8.73,1.89
482687,0.84,3.88,27.18,0.79,8.73,1.03
482722,4.76,7.28,28.43,1.28,8.73,0.62
482757,9.18,4.83,27.16,1.85,8.73,0.79
482792,12.14,-0.15,29.18,2.28,8.73,1.24
482827,13.17,-8.75,34.45,2.12,8.73,1.82
482862,13.44,-9.33,37.13,1.91,8.73,2.14
482897,12.99,-13.21,43.47,1.70,8.73,2.21
482932,9.47,-9.29,46.63,1.55,8.73,2.29
482967,5.52,-12.77,45.65,1.36,8.73,2.37
483002,0.48,-11.85,45.26,1.28,8.73,2.38
483037,-1.69,-10.06,41.14,1.12,8.73,2.37
483072,-4.43,-10.80,37.23,0.85,8.73,2.31
483107,-6.82,-8.60,35.71,0.64,8.73,2.20
483142,-6.76,-4.76,32.94,0.45,8.73,1.97
483177,-2.81,-3.33,28.93,0.47,8.73,1.68
483212,-0.26,0.66,24.95,0.59,8.73,1.29
483247,4.55,1.45,25.71,0.81,8.73,1.18
483282,7.64,-0.93,24.17,1.11,8.73,1.18
483317,9.39,-2.17,24.92,1.32,8.73,1.33
483352,12.45,-5.26,29.78,1.35,8.73,1.56
483387,13.84,-8.01,33.83,1.30,8.73,1.69
483422,13.24,-8.71,37.62,1.29,8.73,1.79
483457,10.37,-8.10,39.60,1.32,8.73,1.88
483492,6.46,-9.98,41.27,1.29,8.73,2.05
483527,3.28,-9.70,41.57,1.16,8.73,2.28
483562,0.36,-10.30,40.82,0.98,8.73,2.42
483602,-3.48,-8.15,38.60,0.73,8.73,2.40
483637,-5.39,-7.57,36.55,0.62,8.73,2.28
483672,-6.29,-5.54,32.96,0.54,8.73,2.12
483707,-5.12,-3.92,28.57,0.51,8.73,1.85
483743,-4.31,-0.78,25.41,0.58,8.73,1.67
483777,-0.48,-1.38,24.02,0.67,8.73,1.51
483812,2.43,-3.21,23.68,0.77,8.73,1.59
483847,6.91,-7.18,23.65,0.73,8.73,1.83
483882,10.34,-8.30,25.19,0.64,8.73,1.95
483917,12.73,-6.44,28.90,0.51,8.73,1.89
483952,12.17,-4.47,33.04,0.75,8.73,1.75
483987,12.72,-5.22,36.27,1.02,8.73,1.85
484021,11.60,-6.86,39.15,1.17,8.73,1.98
484056,7.39,-9.16,41.52,1.15,8.73,2.17
484091,4.07,-9.21,41.98,1.07,8.73,2.29
484126,0.74,-9.04,41.36,0.99,8.73,2.28
484161,-2.84,-7.80,40.67,0.90,8.73,2.28
484196,-5.51,-7.35,38.45,0.85,8.73,2.27
484231,-6.22,-7.40,34.50,0.74,8.73,2.23
484266,-5.83,-5.30,31.33,0.66,8.73,2.12
484301,-3.58,-2.87,28.00,0.76,8.73,2.07
484337,-1.31,-4.31,24.98,0.79,8.73,2.09
484371,3.50,-5.40,25.04,0.86,8.73,2.17
484406,6.08,-4.98,26.01,0.90,8.73,2.14
484441,10.48,-4.46,29.02,0.94,8.73,2.09
484476,13.65,-5.43,31.66,1.06,8.73,2.03
484511,14.03,-5.38,35.30,1.26,8.73,2.08
484546,13.86,-6.88,37.94,1.29,8.73,2.20
484581,10.23,-8.97,39.79,1.26,8.73,2.22
484616,7.12,-9.50,43.85,1.20,8.73,2.15
484651,4.10,-6.49,45.52,1.24,8.73,1.94
484686,0.49,-5.90,44.36,1.39,8.73,1.82
484721,-2.37,-6.93,40.97,1.48,8.73,1.87
484756,-5.31,-7.72,37.18,1.53,8.73,2.01
484791,-5.98,-6.40,34.39,1.35,8.73,2.10
484826,-5.59,-6.46,31.69,1.14,8.73,2.10
484861,-5.51,-4.75,29.87,1.07,8.73,2.02
484896,1.10,-3.60,28.47,1.07,8.73,2.00
484931,7.10,-4.54,28.69,1.11,8.73,1.98
484966,10.63,-4.19,28.30,1.14,8.73,2.01
485001,11.36,-6.87,30.38,1.15,8.73,2.05
485036,12.56,-6.70,33.77,1.17,8.73,2.08
485071,13.21,-6.91,38.51,1.25,8.73,2.16
485106,12.90,-8.05,43.38,1.29,8.73,2.29
485141,9.58,-9.21,45.79,1.31,8.73,2.38
485176,5.38,-9.54,46.88,1.28,8.73,2.35
485211,1.88,-8.29,44.93,1.24,8.73,2.27
485246,-1.96,-8.08,43.70,1.36,8.73,2.23
485281,-4.15,-6.50,42.42,1.53,8.73,2.27
485317,-5.47,-9.01,38.54,1.67,8.73,2.41
485351,-4.52,-9.29,34.17,1.55,8.73,2.58
485386,-4.19,-8.40,29.68,1.40,8.73,2.66
485421,1.25,-8.50,27.42,1.21,8.73,2.66
485456,5.54,-5.44,27.21,1.09,8.73,2.48
485491,6.89,-5.70,27.26,1.07,8.73,2.33
485526,10.45,-6.52,30.52,1.08,8.73,2.33
485561,12.28,-5.94,33.75,0.99,8.73,2.34
485596,13.33,-7.07,38.30,0.90,8.73,2.32
485636,11.85,-8.82,42.93,0.91,8.73,2.36
485671,10.22,-8.19,48.85,0.91,8.73,2.37
485706,4.83,-8.38,47.90,0.85,8.73,2.31
485741,0.87,-8.50,48.37,0.85,8.73,2.30
485776,-2.55,-6.41,46.56,0.90,8.73,2.20
485811,-3.59,-5.34,42.56,0.93,8.73,2.14
485846,-3.98,-5.88,37.91,1.07,8.73,2.12
485880,-4.53,-5.62,34.31,1.14,8.73,2.17
485915,-2.89,-5.86,31.26,1.22,8.73,2.28
485950,3.04,-6.84,29.67,1.18,8.73,2.34
485984,6.71,-5.57,29.58,1.20,8.73,2.26
486018,9.39,-3.06,30.09,1.31,8.73,2.19
486053,12.01,-3.04,34.11,1.58,8.73,2.21
486088,12.45,-4.94,37.44,1.80,8.73,2.36
486123,13.58,-7.86,41.73,1.80,8.73,2.62
486158,11.98,-12.00,45.24,1.63,8.73,2.88
486193,8.76,-11.50,47.87,1.33,8.73,2.82
486229,4.44,-10.74,48.98,1.07,8.73,2.60
486263,0.35,-8.80,49.68,1.05,8.73,2.38
486298,-3.11,-8.83,46.55,1.22,8.73,2.27
486334,-5.33,-9.61,42.16,1.25,8.73,2.31
486369,-6.37,-9.15,37.87,1.14,8.73,2.33
486403,-3.80,-6.42,33.84,0.97,8.73,2.22
486438,-0.90,-2.80,31.23,0.96,8.73,2.01
486473,4.19,-3.91,30.90,1.04,8.73,1.99
486508,8.45,-5.09,31.72,1.09,8.73,2.06
486543,11.22,-6.48,31.51,0.98,8.73,2.15
486578,12.68,-7.49,35.60,0.83,8.73,2.17
486613,13.66,-6.90,40.45,0.79,8.73,2.05
486648,13.80,-7.96,44.36,0.88,8.73,2.01
486683,10.10,-7.38,47.00,1.01,8.73,2.05
486718,7.15,-9.33,48.62,1.09,8.73,2.16
486753,3.51,-8.51,47.91,0.99,8.73,2.32
486788,-0.76,-8.22,47.60,0.83,8.73,2.42
486823,-3.82,-7.70,45.26,0.70,8.73,2.38
486858,-4.01,-7.31,41.05,0.65,8.73,2.31
486893,-6.03,-6.50,36.57,0.64,8.73,2.22
486928,-3.30,-3.83,33.41,0.69,8.73,2.18
486963,0.91,-5.81,30.45,0.76,8.73,2.23
486998,3.18,-8.00,28.38,0.71,8.73,2.39
487033,5.61,-8.16,28.73,0.52,8.73,2.47
487068,10.77,-7.38,32.33,0.45,8.73,2.35
487103,13.12,-6.11,36.53,0.44,8.73,2.17
487138,14.89,-6.76,41.17,0.54,8.73,2.00
487173,13.21,-6.59,45.67,0.72,8.73,1.93
487208,10.33,-5.56,48.15,0.87,8.73,1.90
487242,6.89,-6.94,48.42,0.94,8.73,1.95
487277,2.45,-7.76,48.49,1.04,8.73,2.02
487311,-0.49,-6.30,46.07,1.11,8.73,1.97
487347,-3.59,-6.48,42.76,1.21,8.73,1.95
487381,-5.01,-7.59,38.75,1.31,8.73,1.99
487416,-4.64,-6.75,34.93,1.23,8.73,2.01
487451,-3.77,-4.29,33.22,1.13,8.73,1.94
487486,1.31,-3.28,32.03,1.22,8.73,1.96
487521,5.53,-3.76,31.65,1.28,8.73,2.02
487556,8.64,-5.26,30.35,1.28,8.73,2.19
487591,12.04,-7.45,33.71,1.22,8.73,2.27
487626,14.20,-6.79,37.97,1.16,8.73,2.33
487666,14.24,-7.54,42.03,1.16,8.73,2.39
487701,12.07,-10.19,45.86,1.14,8.73,2.54
487736,9.17,-9.83,47.91,1.06,8.73,2.65
487771,4.75,-11.41,48.51,0.86,8.73,2.83
487806,1.12,-10.77,45.82,0.62,8.73,2.81
487842,-4.22,-8.16,46.35,0.58,8.73,2.61
487876,-5.99,-4.68,43.74,0.68,8.73,2.39
487911,-4.73,-4.68,38.43,0.92,8.73,2.34
487946,-4.49,-6.91,34.54,1.05,8.73,2.47
487981,-4.25,-8.17,30.20,0.96,8.73,2.53
488016,2.22,-8.46,29.79,0.86,8.73,2.52
488051,6.45,-8.05,28.05,0.69,8.73,2.47
488086,9.92,-6.49,29.70,0.71,8.73,2.32
488121,12.79,-8.08,34.02,0.74,8.73,2.21
488156,14.60,-8.66,38.52,0.79,8.73,2.10
488191,13.69,-7.84,42.09,0.88,8.73,2.07
488226,11.01,-7.42,44.09,0.91,8.73,2.11
488261,8.14,-7.60,47.47,0.94,8.73,2.17
488295,4.50,-8.03,48.53,0.94,8.73,2.21
488331,0.82,-8.07,47.38,0.95,8.73,2.19
488365,-3.21,-7.93,46.04,1.03,8.73,2.15
488400,-4.69,-7.38,41.95,1.09,8.73,2.18
488435,-4.16,-7.34,36.83,1.12,8.73,2.19
488469,-3.85,-6.84,33.58,1.12,8.73,2.21
488504,-2.77,-5.29,30.08,1.12,8.73,2.28
488538,2.86,-6.75,30.03,1.11,8.73,2.27
488573,7.00,-4.69,29.04,1.09,8.73,2.24
488607,11.78,-5.44,30.22,1.17,8.73,2.22
488642,13.59,-6.07,34.11,1.29,8.73,2.19
488677,14.61,-8.03,36.06,1.34,8.73,2.23
488712,13.58,-8.28,39.84,1.34,8.73,2.33
488747,10.65,-9.87,42.50,1.26,8.73,2.40
488782,8.78,-9.34,47.06,1.13,8.73,2.32
488817,4.76,-8.65,47.59,1.07,8.73,2.28
488852,1.09,-8.01,46.16,1.08,8.73,2.19
488887,-3.31,-7.59,45.05,1.08,8.73,2.19
488922,-3.50,-6.56,40.30,1.05,8.73,2.21
488957,-4.85,-5.48,35.79,1.00,8.73,2.21
488992,-5.31,-5.55,33.39,0.98,8.73,2.20
489027,-3.12,-5.22,30.44,0.96,8.73,2.24
489061,2.40,-5.46,27.95,0.97,8.73,2.23
489096,6.90,-5.83,28.22,0.95,8.73,2.25
489131,9.82,-4.71,29.02,0.93,8.73,2.25
489165,12.16,-8.83,32.13,0.89,8.73,2.19
489200,13.97,-5.72,35.23,0.83,8.73,2.10
489235,14.02,-5.24,40.25,0.96,8.73,2.12
489269,11.63,-7.95,43.87,1.05,8.73,2.16
489304,9.62,-7.03,47.28,1.07,8.73,2.15
489340,4.92,-8.70,46.92,1.06,8.73,2.19
489374,0.74,-7.77,47.93,1.07,8.73,2.23
489409,-2.82,-6.62,46.40,1.12,8.73,2.20
489444,-3.60,-6.37,41.81,1.14,8.73,2.20
489479,-4.05,-6.31,36.74,1.15,8.73,2.23
489514,-2.01,-6.90,32.36,1.12,8.73,2.23
489549,-2.31,-4.84,28.33,1.05,8.73,2.15
489584,2.33,-4.78,27.85,1.02,8.73,2.12
489619,3.62,-4.52,26.66,1.01,8.73,2.13
489654,8.84,-5.13,29.29,1.00,8.73,2.14
489694,12.93,-5.66,31.45,0.98,8.73,2.15
489729,13.27,-5.90,34.58,0.94,8.73,2.16
489764,13.03,-6.98,39.70,1.00,8.73,2.16
489799,12.44,-8.45,43.74,1.00,8.73,2.16
489835,9.00,-8.06,46.29,1.05,8.73,2.21
489869,4.62,-8.92,47.53,1.04,8.73,2.20
489904,0.67,-8.40,48.18,1.03,8.73,2.20
489939,-1.96,-7.55,44.46,1.05,8.73,2.18
489974,-3.36,-5.24,39.23,1.11,8.73,2.14
490009,-4.38,-4.07,35.06,1.07,8.73,2.10
490044,-3.38,-4.85,32.00,1.05,8.73,2.08
490079,-2.88,-4.80,29.15,1.05,8.73,2.07
490114,-0.60,-4.67,27.71,1.06,8.73,2.13
490149,4.83,-5.88,28.51,1.03,8.73,2.15
490184,9.99,-6.59,28.92,0.97,8.73,2.13
490219,12.65,-7.68,31.41,0.91,8.73,2.11
490254,13.52,-7.44,35.57,0.86,8.73,2.01
490290,13.13,-6.71,39.31,0.85,8.73,1.92
490324,12.56,-7.28,42.64,0.93,8.73,1.87
490360,9.65,-6.85,45.44,1.01,8.73,1.86
490394,5.21,-7.41,48.01,1.13,8.73,1.89
490429,1.01,-7.18,47.08,1.18,8.73,1.96
490464,-2.04,-8.30,43.50,1.18,8.73,2.08
490499,-4.58,-6.53,40.00,1.22,8.73,2.14
490534,-4.78,-7.43,35.22,1.23,8.73,2.18
490569,-5.43,-6.22,33.54,1.23,8.73,2.26
490604,-2.81,-6.58,31.11,1.22,8.73,2.37
490639,2.32,-7.62,29.98,1.15,8.73,2.46
490673,5.04,-6.28,27.64,1.06,8.73,2.46
490707,9.46,-5.39,27.94,0.97,8.73,2.41
490742,11.62,-5.90,30.89,0.95,8.73,2.31
490777,14.30,-4.48,33.39,1.00,8.73,2.24
490812,13.70,-6.30,37.95,1.01,8.73,2.26
490847,12.60,-8.44,42.02,0.96,8.73,2.24
490882,9.35,-7.38,44.35,0.91,8.73,2.19
490917,6.17,-6.96,45.24,0.86,8.73,2.16
490952,2.20,-7.31,44.11,0.82,8.73,2.17
490987,-2.52,-6.64,44.82,0.85,8.73,2.11
491022,-3.98,-5.05,42.42,0.88,8.73,2.07
491057,-4.39,-4.99,38.24,0.91,8.73,2.04
491092,-5.62,-4.22,34.57,1.03,8.73,2.06
491127,-2.12,-4.76,30.78,1.06,8.73,2.09
491162,-1.16,-5.03,27.74,1.03,8.73,2.14
491197,2.30,-6.39,27.68,1.04,8.73,2.22
491232,6.70,-6.51,29.08,1.02,8.73,2.23
491267,11.41,-4.56,29.18,1.01,8.73,2.19
491301,13.69,-5.70,33.09,1.04,8.73,2.17
491336,14.47,-5.93,38.32,1.12,8.73,2.18
491371,13.82,-8.18,41.43,1.24,8.73,2.28
491406,10.05,-7.06,43.02,1.19,8.73,2.34
491441,6.58,-9.17,42.14,1.07,8.73,2.37
491476,3.30,-7.91,45.49,0.99,8.73,2.29
491511,0.08,-7.88,43.78,1.00,8.73,2.23
491545,-2.96,-6.84,41.95,1.07,8.73,2.19
491580,-4.92,-7.36,38.03,1.09,8.73,2.18
491615,-7.39,-5.74,35.26,1.08,8.73,2.22
491650,-3.66,-4.96,31.21,1.06,8.73,2.27
491685,-2.30,-6.62,26.91,1.02,8.73,2.31
491725,1.78,-8.86,25.55,0.94,8.73,2.42
491760,6.84,-7.81,26.36,0.83,8.73,2.41
491795,10.77,-4.72,26.62,0.79,8.73,2.30
491830,13.63,-4.89,30.36,0.95,8.73,2.17
491865,13.02,-4.73,34.83,1.18,8.73,2.21
491900,13.18,-5.48,37.83,1.33,8.73,2.32
491935,11.53,-10.16,41.11,1.30,8.73,2.49
491970,8.66,-7.81,43.57,1.19,8.73,2.52
492005,4.41,-9.19,45.15,1.14,8.73,2.31
492040,1.12,-5.60,45.17,1.40,8.73,1.98
492075,-1.83,-6.96,41.94,1.67,8.73,1.91
492110,-3.80,-8.20,37.49,1.92,8.73,2.06
492145,-8.36,-9.76,35.16,1.91,8.73,2.35
492180,-8.02,-9.48,31.46,1.59,8.73,2.49
492215,-2.28,-7.68,28.17,1.28,8.73,2.42
492250,1.97,-5.29,25.58,1.10,8.73,2.27
492285,4.99,-5.18,25.37,1.01,8.73,2.22
492321,8.33,-5.37,25.79,0.94,8.73,2.22
492355,11.01,-6.53,26.35,0.88,8.73,2.24
492390,11.15,-6.03,30.65,0.77,8.73,2.22
492425,13.09,-5.79,35.52,0.80,8.73,2.17
492460,12.93,-7.38,39.98,0.88,8.73,2.18
492495,10.07,-6.00,43.22,0.89,8.73,2.21
492530,6.69,-8.66,43.08,0.86,8.73,2.36
492565,3.59,-7.76,42.71,0.72,8.73,2.46
492600,-0.21,-7.17,42.30,0.57,8.73,2.40
492635,-2.77,-5.39,40.11,0.60,8.73,2.25
492670,-4.25,-4.51,36.99,0.79,8.73,2.11
492705,-6.74,-3.60,33.65,1.00,8.73,2.13
492740,-4.52,-5.84,29.10,1.12,8.73,2.27
492775,-1.47,-7.90,24.30,1.13,8.73,2.53
492810,2.94,-8.43,22.16,0.97,8.73,2.66
492845,5.47,-8.07,22.25,0.73,8.73,2.66
492880,7.65,-7.52,22.74,0.56,8.73,2.52
492915,10.49,-6.42,25.85,0.62,8.73,2.31
492950,12.39,-5.87,29.44,0.71,8.73,2.17
492985,13.36,-5.29,33.69,0.82,8.73,2.13
493021,13.08,-6.67,38.08,0.87,8.73,2.16
493055,9.95,-6.11,40.95,0.80,8.73,2.12
493090,6.33,-8.71,40.77,0.73,8.73,2.13
493125,2.91,-8.43,41.93,0.71,8.73,2.21
493160,0.36,-7.55,40.15,0.60,8.73,2.18
493195,-2.91,-5.28,38.66,0.61,8.73,2.04
493230,-5.06,-2.85,36.61,0.67,8.73,1.93
493265,-6.40,-2.37,32.71,0.80,8.73,1.84
493300,-4.16,-4.49,28.22,0.98,8.73,1.92
493336,-3.48,-5.17,23.40,1.06,8.73,1.98
493370,-0.11,-3.64,21.90,1.03,8.73,1.97
493405,5.47,-3.10,22.83,1.01,8.73,1.84
493440,8.39,-1.24,22.69,1.11,8.73,1.69
493475,10.79,-4.20,24.01,1.23,8.73,1.74
493510,12.07,-5.53,26.94,1.19,8.73,1.85
493545,12.91,-7.12,30.38,0.96,8.73,1.84
493580,13.32,-7.35,34.08,0.89,8.73,1.83
493615,11.12,-8.29,36.95,0.94,8.73,1.83
493650,8.13,-5.77,39.40,1.06,8.73,1.91
493685,4.56,-9.06,40.43,1.03,8.73,2.11
493720,0.72,-7.06,41.43,0.87,8.73,2.34
493760,-1.69,-5.48,38.85,0.77,8.73,2.30
493795,-4.07,-5.27,35.11,0.90,8.73,2.15
493830,-5.81,-4.16,31.66,1.02,8.73,2.09
493865,-4.82,-4.86,26.90,1.11,8.73,2.16
493901,-3.14,-7.77,22.58,1.17,8.73,2.30
493935,-2.54,-6.84,19.93,1.06,8.73,2.37
493970,-0.01,-5.23,19.64,0.89,8.73,2.20
494005,5.58,-1.64,20.69,0.87,8.73,1.96
494040,8.01,-2.07,21.62,1.07,8.73,1.75
494075,10.90,-3.50,23.65,1.07,8.73,1.75
494110,12.36,-6.18,26.09,0.98,8.73,1.80
494145,13.16,-6.70,29.96,0.87,8.73,1.71
494180,12.14,-5.41,34.30,0.74,8.73,1.58
494215,9.89,-6.84,37.41,0.78,8.73,1.36
494250,6.78,-5.03,39.92,0.97,8.73,1.27
494285,3.87,-5.23,39.72,1.23,8.73,1.31
494320,0.30,-5.82,38.09,1.38,8.73,1.47
494354,-3.32,-5.94,36.90,1.46,8.73,1.60
494389,-4.73,-5.60,33.30,1.41,8.73,1.77
494424,-6.21,-6.02,28.98,1.31,8.73,1.87
494458,-6.90,-4.59,25.97,1.17,8.73,1.91
494492,-4.39,-3.09,22.83,1.00,8.73,1.89
494527,-0.64,-3.62,19.67,0.96,8.73,1.80
494562,3.66,-0.81,19.22,0.92,8.73,1.78
494597,5.39,-3.53,18.58,0.90,8.73,1.89
494632,6.00,-3.66,17.86,0.80,8.73,2.05
494667,8.87,-6.30,20.17,0.65,8.73,2.06
494701,10.69,-5.40,24.99,0.55,8.73,1.97
494735,13.11,-5.44,28.35,0.48,8.73,1.87
494769,13.06,-5.21,32.49,0.52,8.73,1.73
494803,11.20,-6.07,35.51,0.63,8.73,1.69
494838,8.98,-3.98,37.01,0.74,8.73,1.72
494873,4.11,-6.16,36.78,0.79,8.73,1.79
494908,1.50,-5.55,37.35,0.69,8.73,1.85
494943,-2.32,-5.09,34.97,0.61,8.73,1.88
494978,-4.27,-2.58,33.29,0.54,8.73,1.85
495013,-5.14,-2.62,30.12,0.59,8.73,1.75
495048,-5.56,-1.38,26.67,0.73,8.73,1.69
495082,-5.13,-2.05,24.07,0.90,8.73,1.77
495117,-2.97,-3.12,20.51,0.98,8.73,1.89
495151,-1.59,-3.30,18.24,0.97,8.73,1.97
495186,-0.06,-4.65,16.26,0.88,8.73,2.08
495221,3.47,-5.49,16.53,0.83,8.73,2.05
495256,7.09,-3.77,19.03,0.70,8.73,2.02
495291,10.47,-5.07,21.69,0.73,8.73,1.94
495327,12.37,-4.56,25.49,0.73,8.73,1.83
495361,13.80,-4.24,28.98,0.77,8.73,1.73
495396,12.52,-5.92,32.14,0.84,8.73,1.70
495431,9.41,-5.02,33.77,0.92,8.73,1.68
495466,7.74,-5.64,34.97,0.96,8.73,1.63
495501,4.25,-5.37,35.50,1.03,8.73,1.60
495536,0.25,-4.84,35.12,1.09,8.73,1.59
495571,-2.63,-3.80,34.62,1.26,8.73,1.57
495606,-3.79,-4.65,31.01,1.44,8.73,1.62
495641,-6.47,-4.56,28.51,1.72,8.73,1.76
495676,-7.73,-5.46,25.75,1.88,8.73,1.96
495711,-6.14,-7.84,21.70,1.76,8.73,2.20
495746,-5.32,-6.55,18.91,1.48,8.73,2.18
495786,0.54,-0.02,18.74,1.23,8.73,1.79
495821,3.45,1.66,17.83,1.28,8.73,1.48
495856,6.62,0.79,16.68,1.42,8.73,1.40
495891,8.88,-5.06,18.18,1.38,8.73,1.60
495926,10.39,-11.49,18.71,0.86,8.73,1.90
495961,11.29,-11.15,22.59,0.17,8.73,1.86
495996,13.00,-8.41,26.68,-0.24,8.73,1.50
496031,12.22,-4.19,30.89,-0.27,8.73,1.12
496066,10.36,-3.31,33.94,0.06,8.73,1.02
496102,7.58,-3.25,35.24,0.30,8.73,1.26
496136,4.24,-5.94,35.08,0.40,8.73,1.59
496171,0.42,-6.06,35.87,0.27,8.73,1.81
496206,-1.62,-3.41,34.89,0.08,8.73,1.78
496241,-5.38,-2.72,33.88,0.01,8.73,1.61
496276,-5.60,-0.47,29.68,-0.04,8.73,1.35
496311,-5.46,2.32,25.95,0.11,8.73,1.11
496346,-4.49,3.38,23.07,0.49,8.73,0.98
496382,-3.55,1.03,19.54,0.90,8.73,1.09
496416,-0.78,0.33,18.48,1.16,8.73,1.29
496451,0.93,-1.04,17.20,1.31,8.73,1.41
496486,5.66,-0.81,17.86,1.48,8.73,1.46
496521,9.71,-1.55,19.91,1.72,8.73,1.56
496556,12.10,-1.84,22.90,1.92,8.73,1.81
496591,12.02,-6.27,25.94,1.88,8.73,2.13
496626,13.06,-8.51,27.66,1.76,8.73,2.44
496661,11.08,-10.72,32.19,1.62,8.73,2.80
496696,8.54,-11.09,34.86,1.32,8.73,3.03
496731,5.65,-13.50,38.97,0.91,8.73,3.30
496766,2.17,-12.69,39.88,0.26,8.73,3.47
496801,-1.99,-12.76,41.27,-0.39,8.73,3.41
496836,-4.62,-6.45,41.45,-0.86,8.73,3.00
496872,-7.13,-1.18,39.58,-0.70,8.73,2.35
496906,-10.17,-1.13,36.57,-0.29,8.73,1.89
496941,-5.36,-2.52,30.79,0.22,8.73,1.86
496976,-1.27,-4.53,26.40,0.52,8.73,1.98
497011,4.85,-5.50,24.40,0.64,8.73,1.91
497046,9.65,-4.14,22.88,0.72,8.73,1.82
497081,11.91,-3.51,24.84,0.77,8.73,1.77
497116,12.52,-6.23,25.13,0.88,8.73,1.72
497151,12.77,-6.54,27.49,1.00,8.73,1.76
497186,13.08,-5.97,31.57,1.08,8.73,1.77
497221,11.93,-7.01,34.68,1.11,8.73,1.96
497256,9.67,-10.84,36.29,1.20,8.73,2.04
497291,5.90,-8.15,38.67,1.07,8.73,2.16
497327,2.83,-10.01,39.49,0.85,8.73,2.18
497362,-0.85,-9.36,38.24,0.69,8.73,2.18
497396,-3.62,-8.88,35.76,0.43,8.73,2.15
497431,-6.37,-4.80,34.69,0.08,8.73,1.95
497466,-5.93,-4.79,30.62,-0.04,8.73,1.62
497500,-8.78,1.89,29.61,-0.03,8.73,1.20
497535,-6.03,4.40,26.39,0.28,8.73,0.95
497570,-1.76,2.24,23.10,0.73,8.73,0.87
497605,1.63,1.28,22.50,1.10,8.73,1.03
497640,8.50,1.49,23.59,1.38,8.73,1.19
497675,12.55,4.70,27.05,2.00,8.73,1.19
497710,12.98,-0.50,28.37,2.38,8.73,1.59
497745,14.67,-5.48,31.31,2.50,8.73,2.14
497780,12.48,-11.51,36.76,2.25,8.73,2.60
497820,9.93,-14.16,40.62,1.69,8.73,2.62
497855,6.20,-12.87,42.45,1.39,8.73,2.53
497890,2.87,-12.76,41.99,1.16,8.73,2.49
497925,-0.03,-10.56,39.33,1.05,8.73,2.47
497960,-3.21,-8.91,35.76,0.73,8.73,2.40
497995,-6.89,-7.58,33.69,0.46,8.73,2.20
498030,-4.89,-4.79,29.67,0.25,8.73,1.86
498065,-5.23,-2.84,26.01,0.23,8.73,1.47
498100,-3.33,0.91,23.82,0.48,8.73,1.19
498135,2.23,2.51,22.60,0.77,8.73,1.03
498170,4.54,1.42,21.41,1.09,8.73,1.01
498205,8.03,-1.78,18.21,1.43,8.73,1.14
498240,10.46,-0.90,23.51,1.81,8.73,1.28
498275,13.35,-3.65,26.51,1.98,8.73,1.54
498311,13.28,-4.78,29.80,2.11,8.73,1.85
498346,12.31,-9.11,33.88,1.99,8.73,2.28
498380,10.88,-12.82,38.12,1.80,8.73,2.50
498414,6.83,-11.55,40.80,1.45,8.73,2.60
498449,3.21,-12.19,43.46,1.11,8.73,2.54
498484,0.60,-10.65,40.82,1.14,8.73,2.34
498519,-2.84,-9.59,37.83,1.07,8.73,2.27
498554,-4.13,-9.16,32.29,0.88,8.73,2.26
498590,-3.23,-7.59,27.21,0.71,8.73,2.13
498624,-4.16,-5.69,24.78,0.56,8.73,1.83
498659,-2.93,-0.33,22.18,0.45,8.73,1.52
498693,-1.07,-2.10,19.33,0.62,8.73,1.26
498727,3.02,0.37,18.99,0.84,8.73,1.21
498762,2.76,0.28,18.25,1.05,8.73,1.35
498796,8.76,-3.09,21.85,1.35,8.73,1.46
498832,14.39,-3.34,26.41,1.43,8.73,1.63
498866,15.73,-6.27,28.63,1.53,8.73,1.83
498902,13.28,-8.45,31.13,1.59,8.73,2.05
498936,11.27,-8.71,33.99,1.57,8.73,2.29
498971,9.76,-10.20,36.90,1.40,8.73,2.55
499006,5.58,-12.60,36.92,1.16,8.73,2.83
499041,2.12,-10.00,38.61,0.65,8.73,2.84
499076,-1.64,-10.13,40.28,0.32,8.73,2.71
499111,-4.28,-8.69,38.07,0.10,8.73,2.48
499146,-8.46,-6.34,37.40,0.14,8.73,2.18
499181,-5.08,-4.89,31.43,0.26,8.73,1.91
499216,-3.77,-2.62,26.82,0.40,8.73,1.65
499251,-0.21,-0.59,23.23,0.54,8.73,1.47
499286,4.06,0.62,21.65,0.68,8.73,1.14
499321,2.49,2.56,21.78,0.99,8.73,0.99
499355,2.07,0.57,18.51,1.42,8.73,1.03
499390,8.52,-2.44,24.25,1.75,8.73,1.31
499425,12.63,-6.34,28.79,1.81,8.73,1.65
499460,14.89,-8.23,33.02,1.83,8.73,1.87
499494,13.66,-8.94,36.02,1.68,8.73,2.11
499529,9.69,-11.23,37.10,1.55,8.73,2.27
499565,6.05,-11.21,37.50,1.40,8.73,2.33
499599,3.64,-9.67,39.00,1.17,8.73,2.39
499634,-0.17,-10.70,39.78,0.93,8.73,2.46
499669,-3.05,-11.23,35.79,0.68,8.73,2.45
499704,-6.22,-7.53,36.26,0.45,8.73,2.28
499739,-7.15,-6.27,31.90,0.19,8.73,2.06
499774,-7.61,-1.63,27.93,0.18,8.73,1.73
499809,-4.49,-2.46,24.45,0.31,8.73,1.48
499849,-3.57,-0.82,19.73,0.49,8.73,1.26
499884,1.65,-0.79,20.34,0.72,8.73,1.20
499919,7.62,-1.92,21.85,0.95,8.73,1.26
499954,10.46,-1.85,22.06,1.04,8.73,1.43
499989,12.22,-5.24,27.50,1.17,8.73,1.56
500024,14.81,-6.10,30.33,1.19,8.73,1.70
500060,13.09,-7.16,32.55,1.20,8.73,1.77
500094,11.06,-6.79,34.98,1.17,8.73,1.94
500129,8.46,-10.88,35.87,1.14,8.73,2.03
500163,5.57,-8.41,37.98,1.02,8.73,2.19
500198,1.61,-11.77,37.39,0.86,8.73,2.49
500233,-2.72,-10.17,37.28,0.67,8.73,2.51
500268,-3.72,-7.15,36.33,0.47,8.73,2.40
500303,-5.03,-5.00,32.02,0.48,8.73,2.21
500338,-4.48,-3.95,28.42,0.64,8.73,2.05
500373,-4.88,-4.65,25.23,0.68,8.73,1.96
500408,-3.32,-4.38,22.37,0.72,8.73,1.83
500443,-1.80,-2.56,19.59,0.73,8.73,1.72
500478,2.07,-2.84,19.25,0.83,8.73,1.67
500513,7.19,-3.19,20.54,0.95,8.73,1.63
500548,10.97,-1.70,21.14,1.07,8.73,1.62
500583,12.34,-3.53,24.11,1.30,8.73,1.64
500618,12.88,-4.38,25.39,1.46,8.73,1.77
500653,11.81,-5.59,29.41,1.53,8.73,1.99
500688,12.09,-8.89,33.01,1.49,8.73,2.24
500723,7.90,-10.14,36.31,1.35,8.73,2.38
500758,6.17,-9.62,37.79,1.11,8.73,2.43
500793,1.19,-9.69,39.92,0.87,8.73,2.35
500828,-0.12,-8.51,38.42,0.73,8.73,2.30
500863,-4.05,-7.74,35.02,0.63,8.73,2.20
500898,-4.97,-6.31,32.59,0.52,8.73,2.08
500933,-6.00,-4.84,29.14,0.47,8.73,1.93
500968,-5.09,-3.39,26.30,0.53,8.73,1.80
501003,-4.76,-2.35,23.31,0.62,8.73,1.70
501038,-1.55,-2.26,20.87,0.75,8.73,1.65
501073,2.69,-3.11,19.61,0.87,8.73,1.70
501107,6.70,-3.26,20.33,0.99,8.73,1.68
501142,10.52,-3.29,22.12,1.13,8.73,1.69
501177,12.31,-3.39,23.47,1.28,8.73,1.76
501212,11.40,-4.38,26.25,1.50,8.73,1.89
501247,12.09,-6.01,29.70,1.55,8.73,2.09
501282,12.20,-8.80,33.62,1.52,8.73,2.33
501318,8.36,-10.22,36.94,1.33,8.73,2.44
501352,5.96,-10.92,38.58,1.14,8.73,2.41
501387,1.90,-9.92,40.12,0.97,8.73,2.37
501422,-1.39,-9.01,38.67,0.92,8.73,2.34
501457,-3.11,-8.43,35.09,0.75,8.73,2.29
501492,-6.51,-6.72,32.55,0.63,8.73,2.18
501527,-5.78,-5.25,29.71,0.52,8.73,2.05
501562,-5.27,-3.37,26.17,0.43,8.73,1.83
501597,-5.27,-1.31,23.89,0.42,8.73,1.58
501632,-2.41,-1.81,20.85,0.49,8.73,1.44
501666,2.73,-0.89,21.55,0.63,8.73,1.41
501700,8.81,-4.12,21.41,0.68,8.73,1.51
501735,10.35,-6.13,21.13,0.55,8.73,1.69
501770,11.47,-7.12,24.70,0.44,8.73,1.71
501805,13.08,-6.15,27.60,0.32,8.73,1.60
501841,12.10,-5.03,31.93,0.43,8.73,1.47
501880,11.25,-5.59,36.30,0.74,8.73,1.52
501915,8.31,-7.54,39.23,0.97,8.73,1.70
501950,5.97,-6.85,40.04,0.95,8.73,1.93
501986,1.61,-8.09,37.69,0.81,8.73,2.11
502020,-1.87,-7.24,37.78,0.71,8.73,2.13
502055,-4.60,-3.77,36.66,0.57,8.73,2.03
502090,-4.65,-3.96,32.74,0.63,8.73,1.92
502125,-4.93,-2.64,28.24,0.68,8.73,1.75
502160,-3.20,-1.44,24.58,0.74,8.73,1.69
502195,-3.17,-3.37,21.83,0.82,8.73,1.69
502230,-1.06,-3.12,21.48,0.90,8.73,1.65
502265,1.74,-3.38,21.76,0.92,8.73,1.73
502300,4.14,-4.37,21.14,0.91,8.73,1.82
502335,8.73,-5.10,23.64,0.90,8.73,1.86
502371,11.57,-5.83,27.41,0.92,8.73,1.84
502405,13.54,-5.41,32.40,0.98,8.73,1.82
502439,14.14,-6.32,35.40,1.01,8.73,1.84
502473,10.42,-8.87,37.25,1.04,8.73,1.91
502508,9.51,-6.65,40.02,1.06,8.73,1.93
502543,4.33,-7.89,40.45,1.02,8.73,1.98
502578,0.54,-8.47,40.07,1.00,8.73,2.08
502613,-2.41,-7.41,38.30,1.00,8.73,2.07
502648,-5.43,-6.31,36.57,0.99,8.73,2.03
502682,-5.85,-6.32,33.01,1.03,8.73,2.07
502717,-6.31,-5.54,28.95,1.07,8.73,2.05
502752,-5.03,-3.57,25.40,1.02,8.73,2.02
502787,-2.82,-3.57,23.32,0.93,8.73,1.89
502822,2.79,-2.09,22.60,1.02,8.73,1.75
502858,7.52,-0.63,22.57,1.19,8.73,1.55
502892,9.73,0.91,23.68,1.40,8.73,1.52
502927,11.58,-2.62,25.23,1.52,8.73,1.64
502962,12.49,-5.81,27.46,1.52,8.73,1.82
502997,12.34,-7.77,30.57,1.35,8.73,1.90
503032,13.34,-7.56,35.21,1.22,8.73,1.90
503067,9.88,-7.87,38.41,1.07,8.73,1.77
503102,5.77,-7.43,39.05,1.07,8.73,1.65
503137,3.46,-6.22,39.72,1.20,8.73,1.60
503172,-1.36,-6.89,40.96,1.37,8.73,1.58
503207,-3.79,-8.52,38.45,1.43,8.73,1.77
503242,-5.97,-7.82,36.03,1.35,8.73,1.93
503276,-6.17,-6.84,32.17,1.11,8.73,1.98
503311,-4.91,-5.13,27.87,0.98,8.73,1.96
503345,-4.20,-4.14,25.21,0.97,8.73,1.90
503380,0.20,-2.21,23.58,0.95,8.73,1.83
503415,0.82,-0.75,21.85,1.02,8.73,1.76
503450,4.67,-1.87,21.98,1.10,8.73,1.78
503485,9.11,-4.58,24.38,1.20,8.73,1.81
503520,12.85,-3.74,26.91,1.26,8.73,1.87
503555,14.37,-5.19,30.03,1.24,8.73,1.91
503590,12.79,-6.98,33.44,1.20,8.73,1.96
503625,12.00,-8.52,36.44,1.17,8.73,1.93
503661,8.75,-6.04,39.25,1.14,8.73,1.85
503695,5.74,-7.59,39.75,1.15,8.73,1.86
503730,2.19,-7.80,40.45,1.18,8.73,1.91
503765,-1.75,-7.03,38.53,1.21,8.73,1.93
503800,-4.76,-6.09,37.66,1.16,8.73,1.99
503836,-3.73,-6.31,32.76,1.15,8.73,2.07
503870,-6.31,-6.52,29.39,1.16,8.73,2.10
503910,-6.18,-4.97,26.31,1.05,8.73,2.17
503945,-2.82,-6.35,23.41,0.99,8.73,2.23
503979,0.37,-5.13,21.76,0.93,8.73,2.23
504013,5.34,-4.75,21.73,0.81,8.73,2.22
504048,8.63,-6.43,22.66,0.75,8.73,2.17
504082,11.77,-5.37,25.31,0.71,8.73,2.09
504116,12.32,-5.64,28.35,0.70,8.73,2.00
504150,12.98,-6.29,30.27,0.78,8.73,1.93
504184,12.64,-5.15,35.06,0.87,8.73,1.92
504218,10.46,-6.69,38.16,0.89,8.73,1.88
504253,8.24,-6.18,41.33,0.93,8.73,1.81
504287,4.21,-7.10,41.98,1.02,8.73,1.80
504322,0.75,-5.53,42.11,1.18,8.73,1.77
504357,-2.96,-5.93,40.28,1.35,8.73,1.75
504392,-5.02,-6.14,37.10,1.50,8.73,1.86
504427,-6.09,-6.96,32.76,1.51,8.73,1.99
504462,-6.81,-6.53,28.86,1.49,8.73,2.11
504497,-3.88,-5.45,25.91,1.38,8.73,2.14
504532,0.47,-3.32,23.63,1.31,8.73,2.08
504567,3.52,-2.69,22.91,1.25,8.73,2.01
504602,6.16,-4.24,22.16,1.28,8.73,2.01
504637,9.61,-3.79,23.92,1.33,8.73,2.05
504672,12.48,-4.07,27.74,1.48,8.73,2.13
504708,12.92,-3.75,31.39,1.57,8.73,2.28
504742,12.47,-6.70,34.95,1.53,8.73,2.49
504777,12.50,-10.45,38.27,1.29,8.73,2.61
504812,8.13,-11.02,40.15,1.11,8.73,2.57
504847,4.74,-8.60,42.20,0.91,8.73,2.32
504882,1.79,-8.51,42.62,0.89,8.73,2.15
504917,-2.17,-6.46,40.84,0.87,8.73,2.11
504951,-4.69,-8.54,38.10,0.78,8.73,2.11
504986,-5.90,-5.08,33.72,0.58,8.73,2.03
505021,-5.15,-2.52,30.01,0.46,8.73,1.76
505056,-4.66,1.29,26.60,0.60,8.73,1.61
505091,-2.44,-0.94,23.49,0.78,8.73,1.69
505126,-4.37,-4.89,23.06,0.86,8.73,1.87
505161,2.35,-6.90,21.77,0.79,8.73,2.02
505196,9.14,-5.52,24.15,0.70,8.73,2.08
505231,11.74,-6.34,26.81,0.66,8.73,1.98
505266,13.30,-7.34,31.59,0.53,8.73,1.81
505301,14.28,-5.83,35.90,0.56,8.73,1.64
505336,13.30,-6.63,39.09,0.66,8.73,1.52
505372,9.85,-6.15,40.89,0.83,8.73,1.44
