timestamp,accelX,accelY,accelZ,gyroX,gyroY,gyroZ
161734,3.14,-3.73,16.53,0.74,8.73,1.59
161769,6.73,-2.31,16.30,0.81,8.73,1.34
161804,5.60,-2.54,14.28,0.95,8.73,1.26
161839,6.86,-0.79,16.95,1.08,8.73,1.38
161874,11.28,-6.57,19.32,1.11,8.73,1.55
161909,12.67,-4.79,24.15,1.07,8.73,1.62
161944,13.94,-6.51,24.94,1.19,8.73,1.70
161979,11.80,-4.78,27.03,1.28,8.73,1.97
162014,9.28,-6.74,30.73,1.34,8.73,2.46
162049,6.00,-11.38,33.72,1.06,8.73,2.53
162084,3.96,-10.09,35.00,0.74,8.73,2.68
162119,-0.23,-9.82,36.87,0.43,8.73,2.63
162154,-2.79,-6.55,35.27,0.28,8.73,2.35
162189,-5.90,-6.13,33.72,0.15,8.73,2.09
162224,-6.40,-6.10,29.80,0.13,8.73,1.87
162259,-7.33,-2.72,26.36,0.14,8.73,1.66
162294,-4.32,-0.77,22.73,0.33,8.73,1.40
162330,-2.07,0.57,19.38,0.54,8.73,1.30
162369,1.44,1.02,17.42,0.81,8.73,1.25
162404,5.29,-0.90,17.80,1.08,8.73,1.26
162438,8.37,2.47,18.99,1.37,8.73,1.26
162473,10.63,-2.83,20.35,1.77,8.73,1.32
162508,12.51,-1.19,23.14,2.02,8.73,1.60
162543,11.27,-4.18,27.45,2.27,8.73,2.04
162578,14.15,-12.29,30.75,2.23,8.73,2.50
162612,8.96,-10.31,33.02,1.90,8.73,2.78
162646,9.13,-15.09,40.32,1.53,8.73,2.89
162681,4.44,-12.59,39.41,1.13,8.73,2.68
162715,-0.37,-10.64,38.36,1.02,8.73,2.52
162750,-2.73,-9.76,35.87,0.75,8.73,2.43
162785,-3.89,-10.01,32.09,0.47,8.73,2.34
162820,-6.96,-6.88,31.96,0.33,8.73,2.13
162855,-5.96,-4.07,28.15,0.28,8.73,1.83
162890,-5.40,-1.87,23.94,0.28,8.73,1.58
162925,0.58,-0.94,21.45,0.40,8.73,1.24
162960,0.66,1.85,18.84,0.68,8.73,1.03
162995,3.83,3.00,21.35,0.95,8.73,1.01
163030,8.09,-1.48,20.13,1.25,8.73,1.16
163064,11.77,-0.88,23.17,1.50,8.73,1.31
163099,14.32,-4.86,27.21,1.66,8.73,1.53
163134,13.59,-5.84,29.95,1.66,8.73,1.77
163168,11.66,-7.46,33.54,1.63,8.73,1.96
163203,10.04,-10.53,35.53,1.39,8.73,2.02
163238,6.89,-10.13,37.16,1.22,8.73,2.00
163273,3.08,-9.42,36.70,1.09,8.73,2.00
163308,-0.20,-10.13,36.85,0.98,8.73,2.15
163343,-3.10,-9.93,34.20,0.76,8.73,2.24
163379,-5.35,-7.49,31.72,0.33,8.73,2.16
163413,-6.26,-4.41,28.58,0.10,8.73,1.93
163448,-7.18,-2.33,25.41,0.05,8.73,1.61
163483,-7.36,0.22,23.39,0.20,8.73,1.43
163518,-2.77,0.19,21.42,0.44,8.73,1.31
163553,-0.57,-2.29,19.06,0.63,8.73,1.44
163588,3.89,-3.71,18.93,0.75,8.73,1.50
163623,7.43,-5.44,18.54,0.73,8.73,1.67
163658,11.03,-4.97,21.73,0.82,8.73,1.67
163693,13.07,-4.87,24.24,0.88,8.73,1.62
163728,13.88,-5.34,26.53,1.06,8.73,1.66
163763,11.28,-5.13,30.34,1.28,8.73,1.78
163798,10.79,-6.37,32.99,1.34,8.73,2.03
163833,8.37,-8.31,35.42,1.30,8.73,2.30
163867,4.47,-9.86,35.56,1.13,8.73,2.50
163902,1.44,-9.72,36.91,0.87,8.73,2.54
163937,-1.79,-10.11,35.27,0.70,8.73,2.51
163972,-4.05,-6.45,33.33,0.63,8.73,2.30
164007,-6.25,-5.89,30.22,0.60,8.73,2.15
164041,-6.42,-4.46,25.62,0.57,8.73,2.01
164075,-6.34,-3.46,22.22,0.66,8.73,1.95
164110,-4.35,-4.29,19.95,0.74,8.73,1.93
164145,-2.10,-4.64,17.76,0.75,8.73,2.02
164180,1.63,-4.47,17.16,0.76,8.73,1.94
164215,6.16,-2.58,16.38,0.78,8.73,1.73
164250,9.40,-0.06,17.31,0.94,8.73,1.58
164285,11.46,-0.79,20.42,1.23,8.73,1.45
164320,12.23,-2.71,22.13,1.45,8.73,1.49
164355,12.85,-4.19,24.55,1.48,8.73,1.61
164395,13.06,-7.35,27.94,1.38,8.73,1.74
164430,11.32,-8.80,31.03,1.19,8.73,1.71
164465,7.70,-6.68,33.64,1.07,8.73,1.62
164500,3.88,-6.92,33.70,1.06,8.73,1.69
164535,1.76,-7.24,34.01,1.05,8.73,1.78
164570,-2.20,-6.77,33.39,0.99,8.73,1.86
164605,-3.13,-6.68,30.84,0.98,8.73,1.89
164640,-5.31,-5.09,28.41,1.00,8.73,1.94
164675,-6.11,-4.55,25.05,1.05,8.73,1.99
164710,-5.56,-5.51,20.79,1.02,8.73,2.01
164745,-5.06,-4.11,18.11,0.96,8.73,2.06
164780,-2.96,-4.60,15.53,0.87,8.73,2.04
164815,-1.01,-2.92,14.51,0.81,8.73,1.98
164850,1.01,-2.83,14.10,0.79,8.73,1.93
164885,3.98,-2.04,16.10,0.86,8.73,1.75
164920,8.30,-2.78,15.58,0.96,8.73,1.66
164956,11.12,-2.45,17.96,1.04,8.73,1.63
164990,12.94,-2.84,21.95,1.05,8.73,1.67
165025,12.37,-5.36,24.91,1.01,8.73,1.67
165060,12.29,-6.14,27.57,0.99,8.73,1.68
165095,10.44,-5.01,29.85,0.95,8.73,1.63
165130,7.12,-6.92,31.02,0.97,8.73,1.62
165166,5.14,-5.20,34.28,0.96,8.73,1.63
165200,1.14,-6.84,32.25,1.00,8.73,1.64
165235,-2.58,-4.70,34.48,1.01,8.73,1.58
165270,-3.82,-4.91,30.80,1.06,8.73,1.60
165305,-5.66,-5.20,27.34,1.02,8.73,1.65
165340,-7.37,-4.15,25.28,0.90,8.73,1.66
165375,-6.72,-2.94,22.36,0.79,8.73,1.66
165410,-5.96,-1.48,19.17,0.80,8.73,1.67
165445,-4.14,-2.55,16.15,0.81,8.73,1.66
165480,-2.02,-2.00,15.94,0.83,8.73,1.66
165515,1.38,-1.44,15.34,0.84,8.73,1.63
165550,5.60,-0.64,14.83,0.91,8.73,1.64
165585,9.33,-2.34,15.77,0.98,8.73,1.64
165620,11.20,-3.62,18.61,1.02,8.73,1.63
165655,12.38,-4.98,20.18,1.03,8.73,1.62
165690,12.48,-6.05,23.07,0.91,8.73,1.60
165725,11.57,-7.04,26.35,0.85,8.73,1.54
165760,9.76,-6.30,29.08,0.79,8.73,1.38
165796,8.96,-4.44,33.26,0.83,8.73,1.19
165830,4.35,-4.73,32.36,0.98,8.73,1.12
165865,1.58,-5.15,34.43,1.17,8.73,1.20
165900,-0.90,-4.06,31.75,1.28,8.73,1.24
165935,-5.77,-6.65,31.05,1.20,8.73,1.46
165970,-4.97,-3.02,28.52,1.09,8.73,1.61
166005,-4.36,-4.64,23.69,1.00,8.73,1.65
166040,-6.62,-2.22,21.50,0.77,8.73,1.57
166075,-6.35,-0.71,18.87,0.76,8.73,1.54
166110,-3.31,-0.67,17.05,0.81,8.73,1.53
166145,0.63,-1.36,14.61,0.84,8.73,1.59
166180,1.55,-2.79,13.01,0.84,8.73,1.69
166215,6.08,-2.82,14.10,0.82,8.73,1.72
166250,9.30,-3.02,14.98,0.78,8.73,1.70
166285,10.77,-3.26,16.98,0.77,8.73,1.66
166320,11.96,-4.10,19.35,0.74,8.73,1.65
166355,11.92,-5.06,23.35,0.65,8.73,1.61
166390,12.52,-4.48,27.17,0.62,8.73,1.53
166430,10.04,-4.67,29.80,0.66,8.73,1.48
166465,8.35,-4.82,32.60,0.76,8.73,1.45
166501,5.11,-5.05,34.23,0.84,8.73,1.58
166535,0.85,-5.63,33.36,0.80,8.73,1.73
166570,-1.32,-4.37,32.76,0.74,8.73,1.79
166605,-3.46,-4.44,30.19,0.73,8.73,1.76
166640,-6.00,-2.29,28.76,0.79,8.73,1.75
166675,-8.22,-3.30,26.13,1.01,8.73,1.79
166710,-7.68,-3.85,22.54,1.20,8.73,1.95
166745,-5.76,-4.99,18.52,1.28,8.73,2.20
166780,-4.50,-7.01,14.86,1.17,8.73,2.33
166815,-0.66,-4.55,14.25,1.00,8.73,2.32
166850,1.95,-2.25,14.81,0.92,8.73,2.03
166884,4.95,-1.87,15.16,1.00,8.73,1.80
166919,7.83,-1.38,17.20,1.08,8.73,1.76
166954,10.17,-3.58,19.59,1.14,8.73,1.79
166989,12.24,-5.94,21.91,0.97,8.73,1.80
167025,12.77,-6.64,25.30,0.73,8.73,1.73
167059,11.62,-6.50,28.92,0.68,8.73,1.60
167094,9.69,-5.32,31.80,0.68,8.73,1.42
167129,7.21,-4.75,33.41,0.76,8.73,1.36
167163,4.17,-4.71,34.91,0.85,8.73,1.36
167197,0.95,-5.40,34.57,0.94,8.73,1.39
167232,-2.49,-4.79,33.06,1.00,8.73,1.43
167267,-5.95,-5.09,32.16,1.01,8.73,1.50
167302,-6.33,-4.46,28.73,0.93,8.73,1.55
167338,-5.21,-3.02,24.22,0.82,8.73,1.52
167372,-7.79,-0.43,21.47,0.68,8.73,1.38
167407,-4.97,1.10,19.15,0.75,8.73,1.26
167442,-1.63,1.00,16.72,0.86,8.73,1.17
167477,0.76,0.28,15.27,0.99,8.73,1.28
167512,3.87,-0.40,14.43,1.06,8.73,1.44
167546,6.12,-2.28,15.74,1.09,8.73,1.60
167581,9.81,-3.34,17.80,1.09,8.73,1.68
167616,12.43,-4.05,20.47,1.12,8.73,1.73
167650,12.12,-4.36,24.48,1.14,8.73,1.79
167685,12.89,-5.72,27.18,1.15,8.73,1.81
167720,11.80,-5.76,29.61,1.07,8.73,1.84
167755,9.53,-6.26,31.86,1.02,8.73,1.84
167789,6.24,-6.45,32.82,0.96,8.73,1.80
167824,3.08,-6.93,32.80,0.94,8.73,1.82
167858,-0.04,-6.49,33.86,0.92,8.73,1.83
167892,-2.50,-4.59,32.56,0.91,8.73,1.79
167928,-4.86,-5.36,29.40,0.94,8.73,1.81
167962,-5.95,-3.93,26.18,0.93,8.73,1.82
167997,-7.07,-3.64,23.24,1.05,8.73,1.86
168032,-5.31,-4.63,20.31,1.13,8.73,1.98
168067,-4.51,-5.10,17.53,1.09,8.73,2.08
168102,-2.67,-5.97,15.28,1.01,8.73,2.15
168137,0.06,-5.98,14.37,0.86,8.73,2.22
168172,4.65,-3.63,16.23,0.75,8.73,2.14
168207,7.91,-4.54,16.44,0.76,8.73,1.99
168242,10.28,-1.98,17.36,0.76,8.73,1.90
168277,12.27,-2.42,20.07,0.99,8.73,1.82
168312,13.06,-4.14,23.23,0.98,8.73,1.83
168347,11.95,-4.09,26.69,1.06,8.73,1.90
168382,10.79,-6.29,29.31,1.06,8.73,1.98
168417,8.42,-6.71,31.46,1.01,8.73,2.00
168456,5.79,-6.34,32.76,0.91,8.73,1.94
168491,2.83,-5.66,33.05,0.91,8.73,1.81
168526,-0.69,-6.02,32.68,0.97,8.73,1.68
168561,-3.59,-5.43,31.55,1.02,8.73,1.69
168596,-5.61,-4.74,28.73,1.02,8.73,1.70
168631,-7.17,-3.38,26.50,1.06,8.73,1.70
168666,-7.02,-3.56,23.03,1.08,8.73,1.72
168701,-5.44,-3.48,19.43,1.06,8.73,1.76
168736,-3.85,-3.25,16.48,1.00,8.73,1.75
168770,-2.34,-2.60,15.44,0.95,8.73,1.68
168805,0.44,-1.87,14.92,0.93,8.73,1.59
168840,4.22,-0.78,15.47,1.00,8.73,1.54
168875,7.80,-0.73,16.05,1.05,8.73,1.57
168910,11.42,-4.49,17.76,1.04,8.73,1.66
168945,12.75,-5.72,21.16,0.91,8.73,1.68
168980,13.37,-6.28,23.90,0.81,8.73,1.65
169015,12.29,-5.74,26.61,0.76,8.73,1.55
169050,11.21,-6.10,29.03,0.73,8.73,1.42
169084,8.74,-4.87,31.17,0.77,8.73,1.39
169119,5.64,-4.66,32.95,0.83,8.73,1.38
169154,2.96,-5.47,34.32,0.93,8.73,1.43
169189,0.17,-5.65,32.25,0.96,8.73,1.49
169224,-2.92,-4.98,30.63,1.02,8.73,1.51
169259,-5.38,-4.41,30.26,1.01,8.73,1.58
169294,-5.49,-3.51,26.35,1.06,8.73,1.64
169329,-5.49,-4.51,22.90,1.06,8.73,1.67
169365,-7.86,-2.11,20.63,1.05,8.73,1.72
169399,-6.00,-3.70,18.47,1.06,8.73,1.71
169434,-3.06,-2.24,15.98,1.01,8.73,1.68
169469,0.94,-0.99,14.71,1.03,8.73,1.63
169504,5.60,-0.27,14.26,1.10,8.73,1.56
169539,9.63,-1.15,16.10,1.27,8.73,1.51
169574,11.53,-1.36,17.14,1.41,8.73,1.56
169609,11.54,-3.96,19.16,1.50,8.73,1.71
169644,12.39,-3.77,22.82,1.51,8.73,1.88
169679,11.78,-6.18,26.17,1.48,8.73,2.02
169714,11.07,-6.82,29.06,1.36,8.73,2.15
169749,8.57,-7.38,31.34,1.19,8.73,2.20
169784,5.52,-7.84,31.57,1.05,8.73,2.05
169819,2.58,-6.80,34.10,1.04,8.73,1.85
169854,0.07,-5.58,34.85,1.18,8.73,1.68
169889,-2.87,-5.26,31.55,1.39,8.73,1.65
169924,-5.76,-4.99,29.57,1.59,8.73,1.71
169959,-7.53,-6.78,26.25,1.66,8.73,1.89
169994,-8.26,-7.66,21.63,1.43,8.73,1.98
170029,-6.08,-4.66,19.12,1.22,8.73,1.99
170064,-3.55,-4.38,17.12,1.04,8.73,1.85
170099,-2.37,-1.25,15.14,0.97,8.73,1.71
170134,1.07,-1.51,14.29,0.98,8.73,1.65
170168,4.64,-1.94,14.60,1.03,8.73,1.64
170203,8.03,-2.61,14.93,1.03,8.73,1.66
170237,11.23,-4.60,17.45,1.01,8.73,1.70
170271,11.98,-4.80,19.24,0.94,8.73,1.72
170306,11.80,-5.24,22.14,0.93,8.73,1.69
170341,12.58,-5.81,25.20,0.87,8.73,1.63
170376,11.28,-5.40,28.19,0.85,8.73,1.61
170411,8.79,-6.32,30.94,0.82,8.73,1.57
170446,5.42,-5.46,32.53,0.83,8.73,1.50
170486,2.52,-5.29,34.10,0.89,8.73,1.53
170521,-0.39,-5.18,32.82,0.92,8.73,1.58
170556,-3.06,-5.22,30.65,0.95,8.73,1.60
170591,-5.30,-4.86,27.84,0.90,8.73,1.63
170627,-5.67,-2.96,24.70,0.87,8.73,1.59
170661,-8.40,-3.05,21.33,0.82,8.73,1.53
170696,-5.45,-0.37,18.58,0.81,8.73,1.46
170731,-4.94,-0.79,15.84,0.84,8.73,1.35
170766,-3.65,0.70,15.43,0.92,8.73,1.25
170801,0.30,-0.17,14.82,1.00,8.73,1.27
170836,4.22,-0.51,13.25,1.13,8.73,1.29
170871,7.51,-1.61,13.99,1.19,8.73,1.42
170906,10.33,-3.52,16.27,1.24,8.73,1.54
170941,12.38,-4.57,19.73,1.18,8.73,1.66
170976,12.99,-5.07,22.32,1.16,8.73,1.73
171011,12.58,-6.01,26.20,1.15,8.73,1.81
171046,10.68,-6.83,28.57,1.11,8.73,1.89
171081,8.39,-6.81,30.98,1.04,8.73,1.92
171116,5.19,-6.94,32.28,0.95,8.73,1.93
171151,2.85,-6.70,33.43,0.88,8.73,1.89
171186,-1.12,-6.79,33.93,0.87,8.73,1.84
171221,-2.50,-5.50,29.98,0.79,8.73,1.82
171256,-6.17,-6.57,28.18,0.74,8.73,1.77
171291,-5.72,-4.08,24.55,0.70,8.73,1.73
171327,-5.51,-3.57,20.92,0.63,8.73,1.61
171361,-5.41,-2.20,18.68,0.56,8.73,1.51
171396,-5.07,-1.24,16.40,0.65,8.73,1.49
171430,-1.68,-1.59,15.11,0.68,8.73,1.42
171464,1.79,-1.57,14.32,0.75,8.73,1.51
171499,4.40,-3.30,13.56,0.73,8.73,1.60
171534,7.34,-4.33,14.08,0.69,8.73,1.67
171569,9.51,-5.00,16.14,0.56,8.73,1.71
171604,11.34,-5.37,18.21,0.53,8.73,1.67
171639,12.48,-4.24,20.41,0.60,8.73,1.58
171674,12.51,-3.72,23.60,0.79,8.73,1.57
171709,11.47,-5.15,26.61,0.97,8.73,1.68
171744,9.49,-5.82,29.06,1.00,8.73,1.76
171779,7.30,-5.89,31.13,1.01,8.73,1.85
171815,3.53,-6.41,32.36,0.96,8.73,1.91
171849,0.46,-5.57,32.04,0.91,8.73,1.90
171884,-1.91,-4.80,30.30,0.95,8.73,1.79
171918,-5.27,-3.63,29.59,1.06,8.73,1.71
171952,-6.54,-4.61,27.23,1.20,8.73,1.70
171986,-7.95,-4.66,24.35,1.30,8.73,1.77
172020,-8.11,-5.64,20.53,1.25,8.73,1.85
172055,-7.01,-4.87,17.82,1.19,8.73,1.91
172090,-5.13,-4.12,15.06,0.98,8.73,1.79
172125,-1.71,-1.78,14.10,0.94,8.73,1.69
172160,1.18,-1.62,13.54,0.93,8.73,1.60
172195,5.04,-1.22,14.08,0.98,8.73,1.51
172230,7.87,-1.95,14.29,1.01,8.73,1.55
172265,10.92,-4.89,15.92,0.97,8.73,1.57
172300,12.38,-4.75,19.13,0.89,8.73,1.57
172335,13.19,-4.23,21.91,0.88,8.73,1.58
172370,11.97,-4.31,25.12,0.89,8.73,1.59
172405,11.43,-4.92,27.65,0.91,8.73,1.60
172439,8.87,-5.32,29.96,0.87,8.73,1.55
172474,5.68,-5.82,30.24,0.83,8.73,1.49
172514,2.60,-4.85,32.10,0.95,8.73,1.44
172549,-0.56,-4.51,31.74,1.04,8.73,1.40
172584,-3.19,-4.55,29.71,1.11,8.73,1.46
172618,-5.63,-3.72,28.03,1.21,8.73,1.50
172653,-7.14,-4.00,24.87,1.23,8.73,1.59
172688,-7.81,-4.87,22.26,1.17,8.73,1.69
172723,-7.78,-3.75,20.37,1.05,8.73,1.76
172758,-6.07,-2.95,17.06,0.96,8.73,1.78
172793,-2.45,-2.18,14.88,0.89,8.73,1.69
172827,0.40,-2.33,13.36,0.85,8.73,1.67
172862,3.00,-2.38,13.04,0.83,8.73,1.73
172897,5.77,-2.64,13.13,0.78,8.73,1.80
172932,8.98,-3.73,14.61,0.76,8.73,1.80
172967,10.76,-4.83,17.20,0.71,8.73,1.75
173002,12.32,-4.09,20.02,0.69,8.73,1.70
173037,12.68,-3.43,22.97,0.72,8.73,1.67
173072,12.20,-4.86,25.69,0.76,8.73,1.69
173107,9.91,-5.57,28.04,0.70,8.73,1.63
173142,7.85,-5.45,30.06,0.71,8.73,1.55
173177,4.69,-4.85,30.89,0.74,8.73,1.48
173212,1.62,-4.45,31.40,0.76,8.73,1.41
173247,-0.91,-4.08,30.59,0.78,8.73,1.41
173282,-3.45,-4.08,28.71,0.76,8.73,1.45
173318,-5.91,-3.83,27.13,0.60,8.73,1.48
173352,-5.87,-3.95,23.49,0.34,8.73,1.42
173388,-9.37,-1.20,21.99,0.08,8.73,1.22
173422,-6.73,3.81,20.39,0.10,8.73,0.96
173457,-5.11,2.14,16.88,0.37,8.73,0.95
173492,-2.12,0.60,14.76,0.69,8.73,1.14
173527,2.21,-2.45,13.33,0.83,8.73,1.46
173562,5.84,-2.78,12.65,0.79,8.73,1.60
173597,7.95,-4.24,13.02,0.72,8.73,1.71
173632,10.55,-4.41,15.44,0.69,8.73,1.68
173667,12.23,-3.48,16.77,0.69,8.73,1.64
173702,11.82,-3.95,19.25,0.73,8.73,1.62
173736,12.72,-4.82,22.80,0.86,8.73,1.65
173771,11.74,-4.75,25.46,0.92,8.73,1.73
173805,9.59,-5.38,27.37,0.88,8.73,1.78
173839,7.79,-6.34,30.12,0.88,8.73,1.84
173874,3.80,-6.55,30.61,0.86,8.73,1.80
173909,1.48,-6.12,31.50,0.86,8.73,1.73
173943,-1.37,-6.19,30.98,0.85,8.73,1.74
173977,-4.21,-5.67,29.26,0.82,8.73,1.75
174012,-6.22,-4.78,26.90,0.72,8.73,1.74
174046,-5.68,-3.17,23.21,0.73,8.73,1.68
174080,-8.05,-3.97,20.52,0.64,8.73,1.60
174115,-5.75,-1.86,17.47,0.63,8.73,1.56
174150,-4.83,-2.42,13.86,0.63,8.73,1.50
174185,-2.17,-0.61,12.79,0.64,8.73,1.34
174219,0.60,-0.04,11.82,0.69,8.73,1.27
174254,3.51,2.21,12.43,0.81,8.73,1.16
174288,5.86,-1.15,10.82,0.88,8.67,1.21
174324,9.13,-3.51,12.43,0.87,8.62,1.32
174358,11.04,-6.31,14.01,0.72,8.61,1.39
174393,11.53,-5.18,16.85,0.48,8.61,1.37
174428,11.02,-4.18,19.95,0.38,8.66,1.25
174463,10.73,-3.38,23.00,0.37,8.73,1.11
174498,9.16,-4.81,26.19,0.46,8.73,0.95
174538,8.38,-2.80,29.50,0.68,8.73,0.94
174573,5.38,-3.93,30.18,0.86,8.73,1.16
174608,2.22,-5.09,31.81,0.88,8.73,1.49
174643,-0.88,-4.76,30.46,0.80,8.69,1.66
174678,-2.95,-3.85,27.90,0.82,8.65,1.67
174713,-5.50,-3.95,26.85,0.89,8.65,1.64
174748,-6.32,-2.80,23.76,1.02,8.67,1.66
174783,-6.29,-3.60,19.97,1.03,8.67,1.71
174818,-5.85,-2.98,17.13,0.98,8.64,1.75
174853,-5.90,-3.36,14.89,0.96,8.61,1.83
174888,-5.69,-2.95,13.10,0.89,8.66,1.89
174923,-1.03,-4.76,12.21,0.83,8.70,1.95
174958,0.71,-4.93,10.84,0.67,8.70,2.09
174993,4.17,-5.74,10.58,0.46,8.71,2.18
175028,7.79,-6.60,12.07,0.23,8.73,2.12
175063,9.96,-4.34,14.65,0.06,8.73,1.99
175098,11.17,-2.72,17.65,0.12,8.73,1.77
175133,12.38,-3.06,20.98,0.29,8.73,1.62
175168,12.97,-2.75,24.32,0.52,8.73,1.61
175203,11.44,-3.46,27.33,0.64,8.73,1.66
175238,9.25,-4.51,29.81,0.66,8.73,1.61
175272,5.74,-5.06,30.79,0.67,8.73,1.55
175307,2.98,-4.13,31.00,0.72,8.73,1.46
175342,0.02,-3.42,30.49,0.81,8.73,1.38
175377,-2.58,-3.14,28.43,0.92,8.73,1.32
175413,-5.26,-2.33,26.90,1.07,8.73,1.30
175447,-6.08,-2.60,24.18,1.18,8.69,1.33
175482,-6.96,-3.37,21.14,1.18,8.68,1.39
175517,-6.87,-3.04,17.97,1.13,8.68,1.42
175552,-6.57,-1.33,15.29,1.03,8.70,1.36
175586,-4.51,1.24,13.48,0.94,8.73,1.14
175621,0.41,4.90,13.10,1.02,8.73,0.88
175656,1.62,6.03,13.07,1.21,8.70,0.64
175691,3.95,4.32,10.82,1.54,8.72,0.61
175725,6.66,1.39,12.77,1.74,8.73,0.84
175760,9.22,-2.38,14.03,1.65,8.73,1.21
175795,11.29,-5.44,15.88,1.48,8.73,1.48
175830,12.39,-6.25,19.87,1.16,8.73,1.61
175866,11.79,-5.29,23.77,0.98,8.73,1.62
175900,9.89,-5.49,26.34,0.91,8.73,1.56
175935,8.01,-4.53,28.55,0.86,8.69,1.50
175970,6.34,-5.91,29.43,0.88,8.61,1.55
176005,3.47,-6.05,29.72,0.89,8.62,1.58
176040,0.69,-5.79,30.45,0.92,8.66,1.60
176075,-1.77,-5.09,29.03,0.96,8.73,1.55
176110,-4.79,-5.27,28.79,1.07,8.73,1.52
176145,-6.11,-4.04,26.66,1.08,8.73,1.59
176180,-6.85,-4.97,22.32,1.05,8.73,1.63
176215,-8.04,-4.36,19.63,0.89,8.73,1.59
176250,-5.20,-2.33,16.72,0.82,8.73,1.55
176285,-4.84,-1.59,14.10,0.79,8.73,1.47
176320,-3.26,-0.72,13.35,0.83,8.73,1.42
176355,0.80,-2.05,13.15,0.85,8.73,1.42
176391,5.00,-0.41,12.61,0.94,8.73,1.40
176425,8.07,-1.76,13.45,1.02,8.73,1.40
176461,9.96,-3.04,14.89,1.03,8.73,1.44
176495,11.80,-3.28,16.69,0.99,8.73,1.48
176530,12.03,-5.18,19.54,0.93,8.73,1.49
176570,11.52,-4.93,22.92,0.87,8.72,1.47
176605,10.95,-4.61,25.62,0.84,8.70,1.42
176640,8.23,-4.45,27.83,0.84,8.73,1.33
176674,6.61,-4.74,29.58,0.88,8.71,1.25
176709,3.99,-5.23,31.01,0.96,8.73,1.21
176743,1.10,-5.09,30.92,1.06,8.73,1.22
176778,-1.22,-5.43,28.95,1.11,8.73,1.32
176812,-4.94,-6.46,29.19,1.06,8.73,1.45
176847,-6.52,-4.67,26.84,0.94,8.73,1.55
176882,-7.36,-3.90,23.76,0.82,8.73,1.54
176917,-7.85,-2.56,20.76,0.62,8.73,1.43
176952,-6.09,-0.26,17.90,0.59,8.73,1.33
176987,-4.69,0.44,15.23,0.63,8.73,1.20
177022,-1.41,0.58,13.69,0.73,8.73,1.18
177057,1.75,-0.65,12.00,0.82,8.73,1.35
177092,5.91,-2.52,12.08,0.86,8.73,1.47
177126,8.60,-3.96,12.60,0.77,8.73,1.56
177161,10.26,-4.19,14.11,0.66,8.73,1.59
177196,11.06,-5.57,15.83,0.55,8.70,1.56
177231,11.48,-5.66,18.39,0.43,8.73,1.47
177266,11.26,-4.24,21.80,0.34,8.73,1.35
177301,10.60,-5.01,24.81,0.38,8.73,1.22
177336,9.36,-4.34,27.75,0.46,8.73,1.11
177371,7.45,-3.38,29.98,0.64,8.73,1.12
177406,4.46,-4.62,31.40,0.76,8.73,1.27
177441,1.23,-4.72,32.19,0.84,8.73,1.42
177476,-1.36,-5.13,30.72,0.77,8.73,1.53
177511,-4.67,-5.06,29.38,0.72,8.73,1.58
177546,-6.18,-3.34,27.16,0.62,8.73,1.54
177580,-6.30,-2.43,23.51,0.65,8.73,1.49
177614,-7.36,-1.03,20.65,0.65,8.73,1.43
177649,-5.40,-0.16,18.43,0.75,8.73,1.40
177684,-4.11,-0.34,15.77,0.79,8.73,1.36
177719,-1.38,-0.47,13.36,0.87,8.73,1.35
177754,0.84,-1.23,11.98,0.95,8.73,1.39
177789,4.47,-1.86,13.07,0.98,8.73,1.47
177824,6.94,-3.43,12.29,0.94,8.73,1.58
177859,9.62,-4.04,13.79,0.87,8.73,1.65
177894,11.55,-4.93,16.45,0.81,8.73,1.66
177929,12.62,-3.35,19.09,0.85,8.73,1.66
177964,12.29,-3.28,22.10,0.99,8.73,1.73
177999,10.81,-3.15,25.46,1.12,8.73,1.94
178034,9.91,-7.00,27.64,1.17,8.71,2.18
178069,8.52,-6.79,29.97,1.03,8.73,2.29
178104,4.66,-7.61,30.72,0.85,8.73,2.25
178139,1.51,-6.81,30.93,0.74,8.73,2.11
178174,-1.57,-5.87,30.59,0.69,8.73,1.94
178208,-4.13,-6.03,28.74,0.69,8.73,1.86
178242,-6.28,-4.81,26.77,0.71,8.73,1.82
178277,-6.86,-3.84,23.32,0.73,8.73,1.82
178313,-7.56,-3.25,19.83,0.71,8.73,1.78
178347,-7.54,-2.55,16.57,0.73,8.70,1.75
178382,-7.02,-1.74,13.54,0.75,8.69,1.78
178417,-2.51,-2.91,12.62,0.75,8.71,1.80
178452,0.80,-3.86,11.50,0.70,8.71,1.88
178487,3.79,-3.45,11.79,0.60,8.71,1.83
178522,6.26,-3.86,12.00,0.54,8.67,1.80
178557,7.98,-4.37,13.28,0.50,8.70,1.68
178597,10.56,-4.11,15.75,0.48,8.73,1.56
178632,11.72,-4.33,18.80,0.48,8.73,1.47
178667,11.76,-3.66,21.99,0.53,8.73,1.40
178701,11.06,-4.81,25.36,0.60,8.73,1.36
178736,9.74,-4.37,27.99,0.70,8.73,1.32
178771,7.52,-4.41,30.20,0.83,8.73,1.28
178805,4.43,-3.97,30.85,0.92,8.73,1.24
178840,1.36,-4.01,31.65,1.05,8.73,1.24
178875,-1.77,-4.08,30.48,1.17,8.73,1.25
178910,-4.31,-4.02,29.12,1.25,8.73,1.34
178944,-6.97,-4.16,27.75,1.23,8.73,1.46
178979,-7.86,-3.52,24.27,1.15,8.73,1.56
179014,-7.38,-2.79,20.64,0.99,8.73,1.60
179049,-5.37,-2.14,17.20,0.88,8.73,1.56
179084,-3.00,-1.17,14.40,0.82,8.73,1.51
179119,-1.40,-0.85,12.02,0.84,8.73,1.49
179154,-1.65,-0.94,11.09,0.90,8.71,1.67
179189,4.15,-3.48,13.73,0.85,8.73,1.79
179224,7.81,-4.46,12.23,0.77,8.73,1.89
179259,8.91,-3.03,14.31,0.71,8.73,1.92
179294,11.06,-3.20,17.59,0.78,8.73,1.83
179329,13.05,-2.09,20.57,0.92,8.73,1.79
179364,12.92,-2.10,22.70,1.08,8.66,1.87
179399,11.98,-4.86,24.22,1.10,8.55,1.97
179434,10.03,-6.24,26.35,1.00,8.61,2.01
179469,7.81,-6.18,29.09,0.90,8.72,1.97
179504,4.53,-5.57,30.69,0.82,8.73,1.85
179539,1.37,-4.93,31.79,0.80,8.73,1.72
179574,-1.32,-4.37,30.79,0.87,8.73,1.61
179609,-3.40,-3.73,27.63,0.99,8.73,1.54
179643,-6.02,-3.90,26.48,1.08,8.66,1.55
179677,-6.89,-4.04,23.89,1.14,8.66,1.61
179712,-7.23,-3.94,20.83,1.18,8.70,1.69
179747,-6.53,-4.74,18.37,1.13,8.73,1.78
179782,-4.94,-3.79,15.58,1.02,8.73,1.77
179817,-2.28,-2.25,13.18,0.97,8.73,1.73
179852,0.83,-2.25,12.80,0.95,8.73,1.68
179887,3.31,-1.69,11.89,0.94,8.73,1.64
179922,6.31,-1.19,12.68,1.00,8.73,1.60
179957,8.69,-3.01,14.39,1.06,8.73,1.58
179992,10.78,-2.68,16.43,1.07,8.73,1.62
180027,11.98,-3.91,19.05,1.06,8.73,1.66
180062,12.14,-4.97,22.03,1.03,8.73,1.68
180097,11.64,-5.83,24.76,1.02,8.73,1.70
180132,10.12,-6.41,27.39,0.94,8.73,1.66
180167,7.42,-6.42,29.33,0.92,8.73,1.58
180202,4.91,-5.39,30.32,0.90,8.73,1.46
180237,2.01,-5.24,30.93,0.96,8.73,1.38
180271,-0.75,-5.27,30.68,1.03,8.73,1.39
180306,-3.64,-4.83,28.98,1.06,8.73,1.44
180341,-6.34,-5.35,27.35,0.99,8.73,1.51
180377,-5.93,-3.91,23.33,0.88,8.73,1.55
180411,-7.46,-3.20,20.66,0.77,8.73,1.50
180446,-7.82,-0.80,18.65,0.74,8.73,1.43
180481,-5.90,-1.09,16.20,0.77,8.73,1.39
180517,-3.02,-0.70,14.55,0.80,8.73,1.35
180551,0.78,-0.45,13.17,0.88,8.73,1.39
180586,3.80,-1.45,12.68,0.91,8.73,1.43
180626,7.28,-3.04,12.82,0.88,8.73,1.52
180661,9.54,-3.60,13.90,0.85,8.73,1.53
180696,11.05,-4.62,16.59,0.81,8.73,1.54
180731,11.88,-4.48,18.98,0.69,8.73,1.50
180766,11.83,-5.04,22.08,0.62,8.73,1.43
180801,10.91,-5.48,25.19,0.60,8.73,1.32
180836,9.33,-4.89,27.73,0.61,8.73,1.16
180871,7.74,-4.31,29.91,0.67,8.73,0.99
180906,4.62,-3.02,30.41,0.79,8.73,0.93
180941,1.58,-4.94,30.88,0.92,8.73,1.09
180976,-1.02,-4.31,31.25,0.98,8.73,1.26
181011,-3.23,-4.47,28.69,0.91,8.73,1.37
181046,-5.48,-5.07,26.51,0.71,8.73,1.48
181081,-6.75,-2.10,24.27,0.60,8.73,1.45
181116,-7.82,-1.96,21.75,0.60,8.73,1.37
181151,-5.88,-0.22,18.91,0.66,8.73,1.33
181186,-4.49,-0.33,15.44,0.82,8.73,1.38
181221,-1.59,-1.06,13.08,0.93,8.73,1.42
181256,1.43,-2.34,11.96,1.00,8.73,1.56
181291,4.28,-2.48,11.93,0.98,8.73,1.66
181326,6.68,-1.83,12.45,1.01,8.73,1.62
181362,9.33,-1.14,13.41,1.12,8.73,1.57
181396,10.83,-0.66,16.35,1.30,8.72,1.61
181431,11.42,-1.62,18.97,1.47,8.67,1.71
181466,11.76,-3.70,21.70,1.59,8.62,1.91
181501,11.45,-6.31,24.52,1.54,8.62,2.13
181536,9.11,-8.23,26.96,1.33,8.68,2.20
181571,7.30,-7.50,29.48,1.10,8.68,2.17
181606,4.71,-7.51,30.40,0.91,8.73,2.11
181642,1.87,-6.64,31.34,0.80,8.73,1.94
181676,-1.44,-6.68,32.07,0.79,8.73,1.89
181711,-3.61,-6.15,29.49,0.71,8.73,1.89
181746,-5.73,-6.08,26.22,0.59,8.73,1.88
181781,-7.03,-3.99,23.46,0.51,8.73,1.81
181816,-6.56,-2.97,20.21,0.52,8.73,1.72
181851,-6.81,-2.40,17.65,0.61,8.73,1.71
181886,-5.10,-3.39,14.83,0.72,8.73,1.82
181921,-2.37,-4.54,12.91,0.75,8.73,1.90
181956,0.77,-4.36,11.41,0.69,8.72,1.95
181991,4.06,-3.15,11.56,0.62,8.73,1.82
182026,7.40,-1.64,12.91,0.64,8.71,1.67
182061,9.85,-1.68,12.83,0.74,8.65,1.52
182096,10.80,-2.32,14.40,0.84,8.67,1.47
182131,11.47,-3.66,17.41,0.87,8.72,1.48
182166,11.81,-4.66,20.72,0.89,8.73,1.46
182201,11.48,-5.02,23.90,0.90,8.73,1.45
182236,11.07,-6.70,27.14,0.90,8.73,1.38
182271,8.39,-4.92,29.76,0.93,8.73,1.26
182306,5.43,-4.81,30.27,0.99,8.73,1.20
182341,2.47,-5.38,31.82,1.15,8.73,1.24
182377,-0.74,-5.33,31.05,1.27,8.73,1.30
182411,-2.86,-4.55,27.92,1.34,8.73,1.42
182446,-5.44,-5.04,25.86,1.35,8.73,1.52
182481,-6.63,-5.03,22.91,1.28,8.73,1.66
182516,-6.83,-4.67,19.99,1.18,8.72,1.75
182551,-6.20,-3.57,17.52,1.07,8.72,1.79
182586,-5.14,-2.54,14.71,0.95,8.73,1.77
182621,-1.44,-1.43,13.27,0.89,8.71,1.68
182661,1.54,-0.82,11.23,0.86,8.68,1.58
182696,4.74,-1.29,11.73,0.89,8.69,1.51
182730,7.08,-1.17,12.54,0.86,8.65,1.52
182765,8.34,-4.14,12.73,0.83,8.62,1.57
182800,9.25,-3.99,14.47,0.71,8.63,1.61
182836,10.17,-3.80,17.06,0.59,8.68,1.60
182870,10.91,-3.80,20.43,0.60,8.73,1.54
182905,11.44,-3.59,24.25,0.72,8.73,1.52
182941,10.72,-4.78,27.75,0.79,8.73,1.50
182975,8.45,-4.19,30.29,0.85,8.73,1.50
183010,5.14,-4.48,30.30,0.88,8.73,1.40
183045,2.69,-2.09,31.45,1.02,8.73,1.11
183080,-0.32,-3.49,31.19,1.33,8.73,0.98
183115,-2.84,-3.33,28.96,1.59,8.73,1.08
183150,-5.79,-4.76,27.10,1.70,8.73,1.26
183185,-6.79,-4.69,23.48,1.70,8.73,1.47
183220,-7.04,-4.83,20.36,1.60,8.73,1.66
183255,-6.62,-3.82,17.77,1.46,8.73,1.75
183290,-5.62,-3.18,15.31,1.31,8.73,1.79
183325,-3.59,-1.98,13.17,1.20,8.73,1.68
183361,0.61,-0.22,13.10,1.15,8.73,1.59
183395,3.63,1.14,13.49,1.19,8.73,1.48
183430,5.52,1.29,13.67,1.28,8.73,1.42
183465,7.56,-1.26,14.60,1.38,8.73,1.46
183500,9.44,-2.46,16.86,1.40,8.73,1.59
183535,10.77,-4.14,19.24,1.33,8.73,1.74
183570,11.52,-6.35,22.02,1.17,8.73,1.81
183605,11.08,-6.01,24.68,1.04,8.72,1.81
183640,10.68,-6.93,27.05,0.91,8.71,1.74
183675,8.48,-5.12,29.47,0.87,8.72,1.66
183710,5.29,-5.49,30.11,0.86,8.68,1.68
183745,2.14,-5.25,30.28,0.84,8.65,1.75
183780,-0.90,-5.67,29.87,0.70,8.57,1.87
183815,-2.43,-4.11,27.96,0.58,8.54,1.86
183850,-5.12,-3.92,26.24,0.56,8.51,1.81
183885,-6.27,-1.86,24.02,0.62,8.53,1.74
183920,-6.62,-2.98,20.85,0.73,8.55,1.73
183955,-7.41,-3.26,18.29,0.84,8.57,1.82
183990,-6.37,-3.04,16.00,0.96,8.60,2.01
184025,-5.92,-5.58,13.11,0.92,8.62,2.20
184060,-2.28,-5.49,11.99,0.78,8.70,2.28
184095,0.45,-5.44,11.48,0.57,8.73,2.20
184130,4.30,-3.39,11.82,0.47,8.73,2.02
184165,7.48,-2.44,13.02,0.48,8.73,1.78
184200,9.72,-3.20,15.33,0.49,8.73,1.62
184235,11.79,-3.95,17.73,0.39,8.73,1.51
184270,10.94,-3.38,20.35,0.28,8.73,1.33
184305,10.70,-4.62,23.67,0.28,8.73,1.09
184341,10.80,-3.89,27.80,0.30,8.73,0.72
184375,8.69,-1.64,31.15,0.37,8.73,0.25
184410,5.81,-0.33,32.32,0.72,8.73,0.08
184445,3.73,-1.84,34.49,1.21,8.73,0.25
184480,-0.76,-2.30,35.57,1.52,8.73,0.48
184515,-4.00,-4.17,32.64,1.53,8.73,0.94
184550,-6.21,-3.05,31.23,1.38,8.73,1.27
184585,-7.07,-2.96,26.88,1.42,8.73,1.43
184619,-7.90,-2.93,24.17,1.31,8.73,1.55
184654,-6.06,-3.05,20.05,1.26,8.73,1.65
184694,-2.02,-2.52,18.05,1.24,8.73,1.78
184729,0.51,-3.79,15.02,1.18,8.73,1.93
184764,-0.12,-4.84,11.79,1.05,8.73,2.16
184799,5.50,-6.89,13.95,0.80,8.73,2.32
184834,9.62,-6.30,14.50,0.52,8.73,2.34
184869,12.11,-5.79,17.74,0.37,8.73,2.25
184904,13.92,-4.61,18.18,0.36,8.73,2.07
184939,12.43,-3.56,23.10,0.48,8.73,2.00
184974,11.89,-4.34,25.86,0.70,8.73,2.04
185009,10.30,-5.18,28.78,0.69,8.73,2.12
185044,7.13,-5.94,31.09,0.69,8.73,2.28
185079,3.96,-6.43,32.67,0.56,8.73,2.16
185113,1.44,-4.96,31.61,0.39,8.73,1.92
185148,-2.06,-3.20,31.93,0.35,8.73,1.68
185183,-4.24,-3.73,30.52,0.39,8.73,1.51
185218,-5.34,-2.61,28.86,0.29,8.73,1.49
185253,-4.74,-0.56,25.14,0.24,8.73,1.37
185288,-6.08,0.91,22.64,0.42,8.73,1.22
185322,-5.28,1.50,19.43,0.53,8.73,1.08
185357,-4.77,3.12,16.59,0.81,8.73,1.08
185392,0.28,0.24,15.00,1.03,8.73,1.15
185427,2.68,-1.59,13.18,1.10,8.73,1.19
185462,4.52,-0.87,12.90,1.17,8.73,1.35
185497,6.00,-2.69,13.24,1.21,8.73,1.52
185532,8.73,-1.54,14.71,1.27,8.73,1.66
185567,10.45,-2.72,17.55,1.36,8.73,1.77
185602,12.29,-4.04,20.23,1.51,8.73,1.95
185637,12.62,-6.82,23.81,1.47,8.73,2.18
185672,10.22,-8.09,27.26,1.34,8.73,2.35
185707,9.17,-9.24,30.50,1.21,8.73,2.59
185742,6.88,-10.48,32.13,0.93,8.73,2.72
185777,2.97,-10.80,35.31,0.63,8.73,2.72
185812,-0.92,-8.20,37.94,0.40,8.73,2.52
185847,-1.72,-6.92,31.58,0.45,8.73,2.14
185882,-5.19,-6.13,29.31,0.43,8.73,1.90
185917,-5.42,-5.51,25.54,0.44,8.73,1.74
185952,-7.60,-2.59,23.26,0.43,8.73,1.52
185987,-6.79,-1.03,22.17,0.45,8.73,1.30
186022,-2.21,1.22,19.61,0.53,8.73,0.99
186057,-2.95,5.01,16.34,0.80,8.73,0.61
186092,1.85,3.53,17.35,1.09,8.73,0.60
186127,8.17,1.66,17.21,1.49,8.73,0.69
186162,8.30,-0.58,16.60,1.73,8.73,0.96
186197,11.14,-5.00,19.90,1.85,8.73,1.32
186232,12.22,-4.71,23.63,1.82,8.73,1.66
186267,12.39,-7.21,28.34,1.77,8.73,2.00
186302,10.65,-10.23,32.64,1.70,8.73,2.28
186338,10.14,-10.23,34.87,1.52,8.73,2.52
186373,5.26,-11.20,36.22,1.24,8.73,2.59
186407,2.92,-10.45,37.48,0.84,8.73,2.63
186442,-2.28,-13.03,39.03,0.60,8.73,2.62
186477,-2.84,-7.48,34.29,0.47,8.73,2.42
186512,-6.78,-6.60,32.16,0.41,8.73,2.13
186547,-6.07,-6.14,28.62,0.37,8.73,1.95
186582,-4.57,-2.73,24.66,0.25,8.73,1.60
186617,-8.90,-0.21,22.14,0.33,8.73,1.31
186652,-2.58,2.21,19.91,0.57,8.73,1.00
186687,2.40,4.37,20.33,0.93,8.73,0.77
186727,5.67,3.67,19.83,1.39,8.73,0.77
186762,8.35,1.08,20.30,1.73,8.73,0.95
186797,11.76,-5.06,22.63,1.86,8.73,1.34
186832,13.10,-7.58,26.90,1.71,8.73,1.61
186868,12.70,-9.81,31.36,1.39,8.73,1.74
186902,12.24,-11.19,33.66,1.18,8.73,1.68
186937,8.64,-7.81,35.94,1.08,8.73,1.60
186972,5.88,-9.22,35.20,1.08,8.73,1.70
187007,1.13,-9.66,35.30,0.98,8.73,1.94
187042,-0.89,-10.48,33.35,0.69,8.73,2.18
187077,-3.66,-9.14,32.72,0.31,8.73,2.16
187112,-5.90,-5.50,31.34,-0.06,8.73,2.01
187147,-5.05,-3.51,26.57,-0.34,8.73,1.62
187182,-10.74,0.45,25.11,-0.40,8.73,1.17
187217,-8.27,3.81,23.90,-0.17,8.73,0.76
187252,-4.41,5.79,21.43,0.33,8.73,0.62
187287,-0.61,3.15,19.50,0.76,8.73,0.68
187322,7.09,1.19,21.26,1.11,8.73,0.83
187357,12.41,-1.15,20.96,1.38,8.73,1.12
187393,13.59,-1.06,26.95,1.67,8.73,1.26
187427,13.85,-2.72,24.80,1.79,8.73,1.61
187462,11.82,-7.55,28.96,1.79,8.73,1.93
187497,12.88,-11.15,32.70,1.84,8.73,2.29
187532,9.75,-10.51,36.14,1.65,8.73,2.59
187567,4.06,-12.39,35.13,1.36,8.73,2.73
187602,1.63,-12.48,40.65,0.97,8.73,2.60
187637,0.06,-9.85,34.89,0.79,8.73,2.56
187672,-2.93,-9.41,30.61,0.61,8.73,2.30
187707,-13.04,-6.63,34.51,0.47,8.73,2.12
187742,7.03,-5.92,20.58,0.43,8.73,1.97
187777,-4.39,-4.81,17.00,0.26,8.73,1.52
187812,-13.02,-0.41,20.82,0.17,8.73,1.25
187847,-1.80,-0.93,21.88,0.37,8.73,1.04
187882,-3.96,2.93,17.32,0.67,8.73,0.89
187917,6.14,1.73,19.83,0.96,8.73,0.99
187952,10.46,-3.21,19.48,1.24,8.73,1.11
187987,12.23,-4.68,17.38,1.18,8.73,1.30
188022,14.86,-5.31,25.68,1.21,8.73,1.45
188057,12.65,-5.48,23.18,1.19,8.73,1.60
188092,10.53,-7.29,26.65,1.18,8.73,1.71
188127,9.40,-7.86,30.62,1.12,8.73,1.86
188162,8.21,-8.47,35.05,1.16,8.73,2.12
188197,4.46,-10.94,33.28,1.04,8.73,2.38
188232,1.02,-10.38,34.69,0.70,8.73,2.47
188267,-0.89,-9.17,33.57,0.38,8.73,2.42
188302,-3.61,-8.02,30.36,0.12,8.73,2.28
188337,-6.57,-3.81,31.09,0.02,8.73,1.96
188372,-7.14,-4.02,27.77,-0.04,8.73,1.65
188407,-8.88,0.14,24.74,0.13,8.73,1.37
188442,-6.79,0.85,22.71,0.42,8.73,1.21
188476,-3.13,1.07,20.41,0.67,8.73,1.04
188511,2.50,2.27,19.91,1.08,8.73,0.94
188546,7.51,5.89,21.58,1.51,8.73,0.82
188581,10.50,1.76,20.99,2.07,8.73,0.93
188616,12.45,-1.14,22.85,2.51,8.73,1.30
188651,12.36,-6.23,27.52,2.57,8.73,1.84
188685,13.77,-8.73,31.33,2.31,8.73,2.30
188720,11.84,-11.65,36.08,1.96,8.73,2.65
188760,8.61,-11.71,39.38,1.53,8.73,2.85
188794,5.07,-14.24,40.09,1.11,8.73,2.96
188829,-0.57,-11.68,40.57,0.67,8.73,2.95
188864,-2.54,-13.04,36.21,0.29,8.73,2.81
188899,-7.24,-9.56,37.95,-0.08,8.73,2.56
188934,-6.25,-4.64,35.49,-0.23,8.73,2.21
188969,-7.69,-2.35,31.91,-0.14,8.73,1.78
189004,-6.09,0.63,27.93,-0.04,8.73,1.39
189039,-0.11,2.35,24.86,0.29,8.73,1.16
189074,5.70,-2.60,22.34,0.67,8.73,1.21
189109,10.03,-2.97,22.29,0.86,8.73,1.36
189144,11.99,-3.32,23.19,0.87,8.73,1.46
189179,13.60,-7.08,25.32,0.91,8.73,1.54
189214,13.09,-5.72,28.81,1.11,8.73,1.60
189249,13.51,-4.16,30.79,1.38,8.73,1.74
189284,11.53,-7.24,33.10,1.58,8.73,2.18
189320,9.24,-11.92,36.71,1.57,8.73,2.63
189354,5.68,-12.19,37.64,1.37,8.73,3.03
189390,1.94,-9.59,36.96,0.78,8.73,2.97
189424,-3.37,-13.90,37.98,0.57,8.73,2.71
189459,-4.67,-5.72,37.31,0.42,8.73,2.48
189494,-4.29,-7.01,29.46,0.39,8.73,2.21
189529,-6.37,-7.29,26.68,0.34,8.73,2.02
189564,-1.94,-1.28,24.25,0.23,8.73,1.72
189599,-2.75,-1.58,19.99,0.30,8.73,1.41
189634,-0.95,1.02,17.45,0.47,8.73,1.05
189669,4.09,3.27,18.64,0.71,8.73,0.86
189704,6.24,-0.40,18.30,0.99,8.73,0.97
189739,9.81,-0.84,20.22,1.21,8.73,1.12
189774,11.65,-2.30,21.73,1.32,8.73,1.33
189809,13.94,-5.03,25.31,1.52,8.73,1.48
189844,15.54,-6.92,27.31,1.54,8.73,1.65
189879,11.27,-7.08,30.05,1.49,8.73,1.79
189915,9.04,-8.13,31.13,1.45,8.73,1.88
189949,6.33,-8.92,33.69,1.31,8.73,1.94
189984,3.73,-8.92,34.67,1.26,8.73,2.01
190019,-0.09,-8.23,32.67,1.19,8.73,2.10
190054,-3.89,-8.67,33.52,1.10,8.73,2.14
190089,-5.37,-7.23,31.11,1.06,8.73,2.17
190124,-5.28,-6.20,25.33,1.11,8.73,2.14
190159,-6.48,-7.35,21.13,1.14,8.73,2.20
190194,-4.38,-7.10,17.62,1.13,8.73,2.32
190229,-4.02,-8.17,15.61,1.03,8.73,2.40
190264,-2.50,-7.01,13.67,0.84,8.73,2.34
190299,-0.33,-4.39,12.66,0.70,8.73,2.17
190334,4.00,-1.86,14.62,0.69,8.73,1.91
190369,7.37,-0.63,14.88,0.86,8.73,1.63
190404,10.63,-0.14,16.62,1.10,8.73,1.48
190439,11.48,-3.25,18.67,1.21,8.73,1.52
190474,12.14,-5.13,21.54,1.11,8.73,1.58
190509,12.08,-5.68,24.72,0.96,8.73,1.59
190544,10.60,-6.29,27.82,0.87,8.73,1.54
190579,8.42,-4.63,30.35,0.84,8.73,1.52
190614,6.68,-6.51,32.84,0.91,8.73,1.72
190649,3.27,-7.42,33.92,0.84,8.73,1.97
190684,0.22,-6.80,33.94,0.63,8.73,2.13
190719,-2.53,-4.74,32.23,0.50,8.73,2.08
190754,-5.59,-5.65,30.04,0.47,8.73,1.95
190794,-6.70,-2.72,27.31,0.65,8.73,1.83
190829,-7.70,-3.78,23.76,0.80,8.73,1.81
190864,-5.82,-3.39,20.79,0.85,8.73,1.84
190899,-4.16,-2.35,17.33,0.83,8.73,1.75
190934,-0.64,-0.55,15.77,0.84,8.73,1.56
190969,2.59,-1.24,14.75,0.90,8.73,1.41
191004,4.78,-0.56,14.67,1.00,8.73,1.35
191039,6.78,-1.71,14.67,1.09,8.73,1.45
191074,8.87,-3.80,17.48,1.10,8.73,1.55
191109,11.06,-5.60,21.22,1.03,8.73,1.58
191144,11.87,-5.04,25.23,0.92,8.73,1.55
191179,11.77,-6.09,27.64,0.85,8.73,1.47
191214,11.52,-6.55,30.44,0.82,8.73,1.30
191249,8.81,-5.49,33.30,0.88,8.73,1.13
191284,4.98,-5.15,33.21,1.01,8.73,1.13
191319,1.57,-4.45,34.49,1.19,8.73,1.21
191354,-1.47,-6.27,33.86,1.21,8.73,1.38
191389,-4.55,-6.94,31.78,1.13,8.73,1.55
191424,-6.39,-4.87,29.31,1.01,8.73,1.66
191459,-5.63,-3.61,24.92,0.90,8.73,1.66
191494,-4.90,-2.70,21.41,0.74,8.73,1.58
191529,-3.14,-1.10,18.70,0.66,8.73,1.46
191564,-3.85,0.40,15.66,0.65,8.73,1.34
191599,-0.84,0.27,14.80,0.77,8.73,1.35
191634,1.86,-1.75,14.03,0.81,8.73,1.51
191670,5.17,-2.69,13.74,0.82,8.73,1.62
191704,8.17,-3.69,15.12,0.79,8.73,1.67
191739,10.71,-4.33,17.33,0.77,8.73,1.64
191774,12.73,-3.40,19.42,0.73,8.73,1.60
191809,13.18,-3.85,22.23,0.72,8.73,1.55
191844,12.75,-5.09,25.20,0.80,8.73,1.53
191879,10.80,-4.56,27.88,0.88,8.73,1.52
191914,8.47,-4.44,30.72,0.92,8.73,1.49
191949,5.51,-5.58,32.72,0.95,8.73,1.47
191984,2.01,-5.25,33.54,1.01,8.73,1.49
192019,-0.88,-5.18,32.34,1.08,8.73,1.48
192054,-3.79,-4.32,30.34,1.20,8.73,1.47
192089,-5.83,-4.18,28.07,1.28,8.73,1.54
192124,-6.18,-4.96,23.92,1.25,8.73,1.65
192159,-8.55,-3.75,21.86,1.12,8.73,1.72
192194,-5.88,-2.99,18.73,1.11,8.73,1.80
192229,-4.43,-3.22,15.80,1.04,8.73,1.83
192264,-2.10,-3.47,14.19,0.97,8.73,1.83
192299,1.51,-2.75,12.83,0.90,8.73,1.80
192334,4.50,-1.61,12.36,0.87,8.73,1.78
192369,6.86,-3.42,13.42,0.82,8.73,1.80
192404,9.67,-4.26,15.54,0.77,8.73,1.80
192439,10.73,-5.71,17.55,0.61,8.73,1.79
192474,11.38,-5.94,20.74,0.48,8.73,1.69
192509,12.22,-4.82,24.26,0.44,8.73,1.54
192544,10.84,-4.20,26.91,0.51,8.73,1.47
192579,9.12,-4.05,28.62,0.60,8.73,1.47
192614,6.56,-4.73,30.58,0.70,8.73,1.58
192648,3.83,-5.74,31.32,0.71,8.73,1.74
192683,0.08,-6.02,30.81,0.62,8.73,1.83
192717,-2.17,-4.55,29.87,0.59,8.73,1.75
192752,-4.70,-3.85,28.19,0.60,8.73,1.64
192787,-6.73,-2.82,25.50,0.70,8.69,1.55
192827,-7.18,-2.99,21.98,0.91,8.60,1.54
192862,-7.21,-2.71,19.06,0.95,8.56,1.58
192897,-8.77,-1.39,17.38,1.01,8.61,1.64
192932,-5.52,-2.18,15.92,0.93,8.73,1.60
192967,-1.38,0.06,13.52,0.90,8.73,1.46
193002,3.02,0.61,12.95,0.98,8.73,1.30
193037,6.14,0.90,12.65,1.11,8.73,1.25
193072,7.30,0.06,12.67,1.18,8.73,1.29
193107,8.94,-1.42,14.76,1.26,8.73,1.38
193142,10.19,-4.11,16.50,1.15,8.73,1.49
193177,11.93,-6.23,19.11,0.94,8.73,1.51
193212,12.48,-6.22,22.62,0.76,8.73,1.46
193247,12.04,-5.65,25.79,0.65,8.73,1.33
193282,10.06,-5.97,27.09,0.68,8.73,1.20
193317,7.37,-4.01,28.83,0.78,8.68,1.16
193352,4.60,-3.77,30.18,0.83,8.64,1.20
193387,1.77,-4.27,29.96,0.88,8.67,1.31
193422,-1.25,-4.28,29.15,0.88,8.67,1.45
193457,-3.94,-2.89,28.25,0.92,8.64,1.45
193492,-6.27,-4.22,26.58,0.99,8.65,1.47
193527,-6.94,-2.64,23.72,1.14,8.66,1.53
193562,-6.98,-3.45,19.92,1.24,8.62,1.60
193597,-7.68,-3.85,17.34,1.24,8.61,1.71
193632,-5.15,-3.26,14.27,1.18,8.63,1.75
193667,-3.19,-2.23,12.27,1.08,8.66,1.65
193702,-0.88,-1.10,11.40,1.06,8.73,1.48
193737,3.49,0.15,12.45,1.14,8.73,1.32
193772,5.58,2.88,13.61,1.32,8.73,1.26
193807,8.54,0.17,14.71,1.51,8.73,1.32
193843,10.46,-2.57,15.98,1.61,8.67,1.49
193878,11.74,-4.18,18.38,1.58,8.61,1.69
193912,12.31,-6.08,20.88,1.45,8.54,1.83
193947,12.11,-6.20,23.22,1.30,8.48,1.93
193982,10.96,-6.98,25.75,1.18,8.46,2.02
194017,8.15,-6.81,27.81,1.08,8.45,2.09
194052,4.57,-6.69,28.78,0.94,8.41,2.06
194087,2.21,-6.14,29.61,0.83,8.48,1.97
194122,-0.90,-5.96,29.80,0.86,8.53,1.76
194157,-3.26,-4.33,29.35,0.97,8.61,1.59
194192,-4.61,-5.54,26.44,1.07,8.67,1.59
194227,-5.48,-6.02,23.53,1.06,8.67,1.67
194262,-6.69,-5.86,20.56,0.97,8.67,1.70
194298,-6.44,-3.95,17.58,0.86,8.63,1.66
194332,-5.76,-2.73,15.24,0.83,8.57,1.67
194367,-5.91,-2.17,13.16,0.83,8.55,1.70
194402,-2.75,-2.60,11.09,0.83,8.58,1.75
194436,-0.29,-2.67,10.29,0.79,8.62,1.74
194471,3.86,-1.57,11.77,0.81,8.67,1.63
194506,8.61,-2.24,12.66,0.89,8.63,1.56
194540,11.72,-1.15,14.22,0.98,8.49,1.51
194575,11.49,-2.77,15.76,1.07,8.44,1.51
194610,11.52,-4.82,17.70,1.05,8.45,1.55
194645,11.74,-5.60,20.38,0.95,8.50,1.55
194680,11.31,-7.30,23.55,0.84,8.57,1.49
194715,9.65,-6.33,26.13,0.69,8.67,1.31
194750,7.78,-5.19,29.35,0.72,8.73,1.15
194785,4.07,-5.44,30.26,0.81,8.73,1.18
194820,1.00,-4.78,29.79,0.87,8.72,1.33
194860,-1.29,-5.62,28.81,0.78,8.65,1.44
194895,-4.33,-5.57,27.11,0.61,8.61,1.53
194930,-5.87,-3.91,24.82,0.40,8.60,1.53
194965,-7.20,-2.09,22.94,0.24,8.64,1.41
195000,-6.84,0.03,20.45,0.13,8.73,1.19
195035,-5.91,1.44,17.70,0.16,8.73,0.97
195070,-4.37,2.93,14.73,0.32,8.73,0.83
195105,-1.13,2.46,12.20,0.58,8.73,0.82
195140,0.87,0.93,10.94,0.78,8.67,0.98
195175,2.79,-0.22,11.54,0.86,8.66,1.16
195210,4.49,-0.90,11.24,0.96,8.73,1.27
195245,8.21,-1.86,14.41,1.06,8.73,1.33
195280,10.64,-3.03,17.12,1.15,8.73,1.40
195315,12.67,-3.44,19.66,1.19,8.73,1.47
195350,12.39,-4.97,21.89,1.26,8.69,1.59
195385,11.98,-4.66,24.56,1.28,8.70,1.71
195420,9.70,-6.70,26.99,1.20,8.73,1.82
195456,6.90,-7.57,29.62,1.17,8.73,1.91
195490,4.66,-7.25,30.67,1.10,8.73,1.92
195525,1.43,-7.24,31.55,1.03,8.73,1.91
195560,-1.76,-5.87,31.29,0.98,8.73,1.91
195595,-4.07,-5.23,28.67,0.96,8.73,1.87
195630,-6.48,-5.58,26.84,1.01,8.73,1.85
195665,-6.77,-5.03,23.89,1.03,8.73,1.90
195700,-7.17,-4.70,20.54,1.04,8.73,1.93
195735,-4.80,-4.65,16.75,0.95,8.73,1.93
195770,-2.24,-3.81,14.17,0.84,8.72,1.88
195805,-2.22,-2.99,11.35,0.77,8.70,1.83
195841,-0.20,-2.61,11.33,0.69,8.73,1.71
195875,2.57,-3.20,13.02,0.62,8.73,1.60
195910,5.76,-1.80,11.94,0.59,8.73,1.53
195945,9.54,-2.01,14.70,0.55,8.73,1.51
195980,11.52,-4.91,16.67,0.49,8.73,1.42
196015,12.25,-5.02,18.89,0.33,8.73,1.25
196050,11.69,-4.98,22.68,0.19,8.73,1.04
196085,10.81,-5.17,26.02,0.11,8.73,0.66
196120,9.95,-3.62,28.66,0.24,8.73,0.29
196155,8.43,-0.34,30.98,0.58,8.73,0.10
196190,5.82,-1.02,32.60,0.98,8.73,0.17
196225,1.71,-2.91,34.64,1.30,8.73,0.57
196260,-2.29,-3.73,32.13,1.35,8.73,0.98
196295,-4.89,-4.12,29.77,1.31,8.73,1.28
196331,-5.74,-4.12,26.87,1.33,8.73,1.45
196366,-7.90,-3.31,26.34,1.49,8.73,1.59
196400,-6.62,-3.35,21.16,1.33,8.73,1.71
196435,-6.06,-1.40,17.52,1.29,8.73,1.77
196470,-4.04,-2.46,15.76,1.27,8.73,1.90
196505,-1.79,-1.49,14.25,1.14,8.73,1.79
196540,-0.68,-1.26,13.18,1.12,8.73,1.79
196575,4.75,-0.73,15.07,1.15,8.73,1.79
196610,9.19,-2.24,16.40,1.17,8.73,1.78
196645,11.19,-2.33,16.55,1.18,8.73,1.78
196680,11.85,-4.21,19.99,1.08,8.73,1.79
196715,12.84,-4.58,22.28,0.93,8.73,1.76
196750,13.08,-5.57,24.90,0.73,8.73,1.66
196785,11.47,-5.49,27.92,0.62,8.73,1.49
196820,9.14,-3.93,30.25,0.60,8.73,1.28
196855,6.11,-3.88,31.46,0.66,8.73,1.18
196895,1.01,-4.02,31.75,0.82,8.73,1.27
196930,-1.47,-3.62,30.85,0.82,8.73,1.36
196965,-4.05,-3.56,28.98,0.78,8.73,1.42
197000,-6.55,-3.60,27.12,0.77,8.73,1.46
197035,-6.69,-1.78,24.38,0.86,8.73,1.47
197070,-6.47,-1.45,20.91,1.03,8.73,1.50
197105,-6.84,-2.36,18.08,1.16,8.73,1.63
197140,-5.88,-3.33,15.40,1.24,8.73,1.85
197176,-3.41,-4.69,13.05,1.21,8.73,2.02
197210,-0.46,-4.39,12.53,1.11,8.73,2.07
197245,3.27,-2.18,12.54,1.04,8.73,1.91
197280,7.14,0.38,13.37,1.14,8.73,1.77
197315,9.57,-1.24,15.03,1.31,8.73,1.69
197350,11.68,-0.64,17.52,1.47,8.73,1.72
197385,12.18,-1.19,19.55,1.57,8.62,1.86
197420,11.44,-4.42,21.65,1.57,8.52,2.05
197455,10.22,-7.10,23.79,1.48,8.46,2.21
197490,9.82,-8.25,26.31,1.22,8.48,2.22
197525,7.94,-7.63,28.40,1.00,8.54,2.10
197560,5.24,-6.58,29.18,0.84,8.54,1.81
197595,2.26,-5.82,29.98,0.88,8.59,1.56
197631,-0.90,-5.07,30.64,0.94,8.61,1.52
197665,-3.32,-5.07,27.72,0.87,8.67,1.55
197700,-5.69,-5.62,26.46,0.68,8.67,1.59
197735,-6.71,-2.74,24.53,0.48,8.72,1.55
197770,-6.61,-1.89,21.19,0.37,8.73,1.41
197806,-6.43,1.07,18.98,0.30,8.73,1.22
197840,-5.54,1.19,16.19,0.38,8.73,1.07
197875,-4.79,2.15,14.18,0.54,8.73,1.04
197910,-0.91,-0.74,12.92,0.73,8.73,1.23
197944,1.95,-3.27,12.07,0.75,8.73,1.50
197978,4.97,-4.53,11.74,0.71,8.73,1.64
198013,7.95,-4.41,13.29,0.65,8.73,1.69
198048,10.02,-3.12,15.90,0.64,8.73,1.64
198083,11.53,-2.21,17.77,0.76,8.70,1.57
198118,12.16,-3.08,20.33,0.92,8.66,1.61
198153,11.66,-4.49,23.24,1.06,8.66,1.70
198188,10.59,-5.31,26.11,1.11,8.67,1.86
198223,8.06,-6.61,28.18,1.06,8.69,1.96
198257,5.70,-7.31,29.55,0.96,8.65,1.97
198293,3.21,-7.28,30.47,0.91,8.71,1.92
198327,0.39,-6.23,30.10,0.91,8.70,1.82
198362,-2.59,-5.49,29.15,0.94,8.72,1.73
198397,-5.34,-5.77,27.87,0.97,8.72,1.72
198432,-6.09,-4.68,24.71,1.00,8.72,1.74
198467,-6.77,-4.61,21.21,0.96,8.70,1.74
198502,-8.12,-3.45,18.86,0.89,8.68,1.74
198537,-6.80,-3.33,16.03,0.82,8.68,1.73
198572,-5.48,-1.97,13.29,0.76,8.68,1.68
198607,-2.14,-2.02,12.17,0.75,8.72,1.65
198642,0.61,-3.06,11.37,0.73,8.73,1.65
198677,4.15,-3.13,11.64,0.69,8.73,1.66
198712,7.15,-4.07,12.53,0.63,8.73,1.70
198747,9.33,-4.82,14.29,0.54,8.73,1.68
198782,11.44,-3.48,17.63,0.52,8.73,1.62
198817,12.34,-2.71,20.68,0.59,8.73,1.55
198852,11.94,-3.79,23.35,0.72,8.73,1.55
198886,10.82,-4.46,26.00,0.81,8.73,1.60
198926,8.42,-4.93,29.32,0.82,8.73,1.60
198961,5.68,-5.94,30.77,0.81,8.73,1.63
198996,2.93,-6.41,31.59,0.81,8.73,1.66
199031,-0.14,-5.64,32.48,0.80,8.73,1.68
199066,-2.54,-5.16,30.11,0.77,8.73,1.67
199101,-4.61,-3.80,27.81,0.76,8.73,1.64
199136,-5.91,-3.32,25.13,0.76,8.73,1.60
199170,-6.67,-3.43,22.03,0.81,8.73,1.57
199205,-6.94,-3.14,19.38,0.84,8.73,1.59
199240,-6.09,-2.62,16.83,0.87,8.73,1.60
199275,-4.65,-1.81,14.39,0.91,8.73,1.63
199310,-0.88,-2.02,12.95,0.92,8.73,1.61
199346,1.44,-1.42,12.49,0.94,8.73,1.58
199380,4.27,-1.80,12.80,0.98,8.73,1.61
199415,7.56,-2.15,14.00,1.04,8.73,1.62
199450,10.21,-4.04,16.62,1.11,8.73,1.65
199484,11.62,-3.62,19.63,1.11,8.73,1.70
199519,12.15,-4.77,22.38,1.13,8.73,1.76
199554,11.85,-6.85,25.63,1.12,8.73,1.80
199589,10.64,-6.09,29.22,1.08,8.73,1.88
199624,7.78,-7.15,31.86,1.03,8.73,1.86
199659,4.64,-6.11,32.94,0.97,8.73,1.76
199694,1.20,-6.23,33.06,0.99,8.73,1.68
199729,-1.45,-5.13,31.66,1.10,8.73,1.55
199764,-4.13,-5.42,29.71,1.23,8.73,1.51
199799,-6.68,-5.94,27.62,1.22,8.73,1.59
199834,-6.93,-5.45,24.51,1.10,8.73,1.67
199869,-7.10,-4.65,21.50,0.88,8.73,1.63
199904,-6.27,-1.77,18.77,0.68,8.73,1.47
199939,-4.11,0.16,16.42,0.65,8.73,1.31
199974,-1.39,1.13,14.70,0.76,8.73,1.22
200009,0.43,-0.56,13.12,0.85,8.73,1.29
200043,4.01,-2.19,12.92,0.91,8.73,1.41
200078,7.53,-1.88,14.05,0.89,8.73,1.54
200113,9.83,-2.92,15.84,0.88,8.73,1.61
200148,10.92,-3.57,19.12,0.90,8.73,1.60
200183,11.72,-3.97,22.71,0.97,8.73,1.61
200218,12.23,-4.90,25.86,1.00,8.73,1.64
200253,11.27,-5.31,29.04,1.00,8.73,1.67
200288,8.74,-5.95,30.89,0.99,8.73,1.64
200323,5.64,-5.96,32.26,0.97,8.73,1.62
200358,2.83,-5.66,33.01,1.08,8.73,1.58
200393,-0.20,-4.56,33.91,1.23,8.73,1.56
200428,-3.10,-4.44,31.55,1.40,8.73,1.55
200463,-4.87,-4.44,28.04,1.56,8.73,1.62
200498,-5.90,-5.88,25.51,1.64,8.73,1.77
200533,-5.94,-6.28,22.97,1.60,8.73,1.96
200568,-7.81,-6.05,20.80,1.46,8.73,2.08
200603,-7.50,-5.40,18.53,1.21,8.73,2.05
200638,-2.55,-3.19,17.32,1.06,8.73,1.92
200673,0.83,-2.18,15.51,1.01,8.73,1.76
200708,5.22,-0.91,15.28,1.05,8.73,1.67
200743,8.62,-1.52,15.82,1.11,8.73,1.64
200778,10.59,-4.37,18.82,1.13,8.73,1.67
200813,11.99,-6.04,22.00,1.01,8.73,1.72
200848,13.12,-6.47,24.59,0.82,8.73,1.67
200883,12.45,-6.25,27.24,0.66,8.73,1.54
200918,11.04,-5.48,30.05,0.59,8.73,1.33
200958,8.13,-4.53,32.48,0.73,8.73,1.18
200993,5.31,-3.85,33.75,0.86,8.73,1.24
201028,2.28,-5.12,34.21,0.95,8.73,1.42
201063,-0.79,-5.17,32.94,0.89,8.73,1.58
201098,-4.79,-5.60,31.19,0.82,8.73,1.63
201133,-6.34,-2.66,28.87,0.80,8.73,1.60
201168,-6.02,-2.11,25.20,0.87,8.73,1.53
201203,-7.53,-2.61,22.45,0.98,8.73,1.54
201238,-7.66,-1.79,20.17,1.09,8.73,1.64
201273,-5.55,-1.89,17.51,1.11,8.73,1.70
201308,-1.47,-1.98,16.53,1.11,8.73,1.65
201344,3.53,-1.04,16.16,1.14,8.73,1.54
201379,7.74,1.02,16.29,1.27,8.73,1.47
201413,9.55,-0.33,15.95,1.42,8.73,1.48
201448,10.83,-3.83,17.69,1.44,8.73,1.64
201482,12.16,-5.28,20.17,1.35,8.73,1.76
201517,12.63,-6.53,23.34,1.18,8.73,1.84
201552,12.07,-7.16,27.21,1.03,8.73,1.86
201586,10.02,-7.27,30.15,0.90,8.73,1.81
201621,7.94,-6.25,32.38,0.86,8.73,1.76
201656,5.05,-6.52,33.18,0.86,8.73,1.78
201691,1.77,-7.01,34.07,0.89,8.73,1.79
201726,-1.17,-6.20,33.66,0.85,8.73,1.78
201761,-4.02,-5.87,31.40,0.80,8.73,1.79
201796,-6.05,-3.89,29.18,0.73,8.73,1.78
201831,-7.29,-4.27,25.85,0.63,8.73,1.73
201866,-7.59,-2.33,23.30,0.55,8.73,1.61
201901,-5.46,-1.79,20.05,0.63,8.73,1.59
201936,-2.37,-1.26,17.21,0.68,8.73,1.53
201971,0.11,-2.16,14.61,0.76,8.73,1.62
202006,2.81,-4.74,13.67,0.75,8.73,1.76
202041,6.49,-6.07,15.24,0.62,8.73,1.91
202076,9.43,-6.22,16.31,0.49,8.73,1.90
202111,11.12,-3.63,18.57,0.50,8.73,1.79
202146,11.52,-2.66,21.94,0.63,8.73,1.70
202181,12.31,-3.04,25.34,0.83,8.73,1.74
202216,11.57,-4.58,28.02,1.01,8.73,1.88
202251,9.91,-6.54,30.42,1.04,8.73,2.05
202286,7.63,-6.91,32.90,0.97,8.73,2.18
202321,3.99,-7.29,33.75,0.80,8.73,2.21
202357,0.95,-7.13,34.53,0.73,8.73,2.10
202391,-2.44,-6.38,33.40,0.69,8.73,1.96
202426,-3.81,-5.04,30.38,0.76,8.73,1.87
202461,-5.86,-4.51,28.38,0.90,8.73,1.87
202496,-6.14,-4.66,24.77,1.02,8.73,1.91
202531,-7.36,-4.45,21.85,1.08,8.73,2.04
202566,-5.60,-6.05,18.80,1.14,8.73,2.22
202601,-1.71,-7.33,15.88,1.05,8.73,2.34
202636,2.07,-5.77,13.95,0.88,8.73,2.28
202671,5.46,-3.13,14.57,0.81,8.73,2.06
202706,8.48,-1.38,15.50,0.93,8.73,1.80
202741,10.40,0.13,16.80,1.17,8.73,1.64
202776,11.05,-2.46,19.88,1.42,8.73,1.68
202811,11.71,-3.32,22.09,1.46,8.73,1.82
202846,11.88,-5.52,24.72,1.35,8.73,1.92
202881,10.99,-7.77,28.23,1.16,8.73,1.94
202916,9.01,-6.53,30.98,1.00,8.73,1.78
202951,7.08,-6.79,33.52,0.96,8.73,1.58
202991,2.71,-5.09,33.21,1.05,8.73,1.45
203026,-0.23,-5.44,33.61,1.19,8.73,1.43
203061,-2.65,-6.24,30.67,1.23,8.73,1.53
203096,-4.81,-6.62,28.29,1.19,8.73,1.62
203131,-6.47,-5.19,25.88,1.06,8.73,1.70
203166,-6.09,-3.56,22.69,0.93,8.73,1.69
203201,-4.76,-2.33,19.44,0.80,8.73,1.59
203236,-3.92,-1.17,16.78,0.75,8.73,1.48
203271,-1.87,-0.34,14.91,0.81,8.73,1.41
203306,2.28,-1.10,14.07,0.87,8.73,1.40
203341,4.81,-0.49,13.85,0.95,8.73,1.41
203376,5.57,-0.15,14.20,1.00,8.73,1.52
203411,9.49,-3.35,16.91,1.07,8.73,1.56
203446,11.15,-2.69,18.25,1.11,8.73,1.62
203481,11.98,-3.64,21.83,1.10,8.73,1.68
203516,12.62,-5.89,24.84,1.06,8.73,1.69
203551,11.58,-5.85,27.95,1.00,8.73,1.70
203586,8.60,-5.07,30.03,0.94,8.73,1.60
203621,6.17,-5.56,32.07,0.94,8.73,1.53
203656,3.33,-6.29,33.34,1.01,8.73,1.55
203691,0.08,-5.75,32.85,1.02,8.73,1.61
203726,-2.30,-4.96,29.96,0.96,8.73,1.68
203761,-5.40,-4.82,29.02,0.91,8.73,1.72
203796,-5.79,-3.65,25.85,0.83,8.73,1.76
203831,-5.81,-2.87,22.20,0.85,8.73,1.76
203866,-6.00,-1.91,19.39,0.88,8.73,1.79
203901,-5.55,-3.62,16.47,0.88,8.73,1.83
203936,-3.98,-3.54,15.37,0.86,8.73,1.95
203971,-0.46,-5.35,13.99,0.78,8.73,2.08
204006,2.55,-5.61,13.29,0.65,8.73,2.12
204041,4.75,-3.78,13.63,0.50,8.73,2.06
204076,8.37,-4.48,15.99,0.44,8.73,1.94
204111,11.49,-4.64,18.57,0.43,8.73,1.78
204146,11.92,-4.38,21.78,0.45,8.73,1.64
204181,12.22,-4.20,25.53,0.48,8.73,1.54
204216,11.14,-4.99,29.06,0.53,8.73,1.41
204251,8.80,-4.77,30.74,0.58,8.73,1.27
204286,7.20,-4.19,32.54,0.71,8.73,1.19
204321,4.57,-4.75,33.33,0.84,8.73,1.25
204357,0.55,-5.14,33.50,0.90,8.73,1.43
204391,-2.83,-4.47,30.94,0.83,8.73,1.57
204426,-4.97,-3.27,28.95,0.78,8.73,1.58
204461,-6.92,-2.83,26.10,0.73,8.73,1.56
204496,-7.15,-2.18,23.59,0.71,8.73,1.49
204531,-6.69,-1.61,20.47,0.76,8.73,1.45
204566,-5.66,-0.33,17.73,0.85,8.73,1.46
204601,-5.54,-0.93,15.41,0.88,8.73,1.49
204636,-0.88,-1.96,15.22,0.96,8.73,1.61
204671,1.69,-2.12,14.81,0.91,8.73,1.75
204706,4.30,-3.83,13.48,0.92,8.73,1.79
204741,9.46,-4.72,15.87,0.85,8.73,1.83
204776,12.28,-4.82,19.70,0.77,8.73,1.81
204811,13.09,-4.94,22.08,0.72,8.73,1.73
204846,13.84,-4.24,23.55,0.70,8.73,1.69
204881,11.36,-5.80,25.86,0.78,8.73,1.68
204916,10.30,-5.46,28.86,0.79,8.73,1.66
204951,8.59,-4.39,31.44,0.81,8.73,1.71
204986,5.29,-5.50,31.79,0.79,8.73,1.74
205026,0.75,-4.86,32.60,0.81,8.73,1.69
205061,-1.93,-4.20,31.15,0.89,8.73,1.60
205095,-2.72,-3.31,27.43,1.14,8.73,1.47
205130,-6.05,-3.73,26.75,1.39,8.73,1.48
205165,-6.18,-4.21,23.39,1.51,8.73,1.61
205200,-8.17,-4.77,21.22,1.46,8.73,1.69
205235,-8.24,-3.87,18.15,1.31,8.73,1.66
205270,-6.82,-0.81,15.53,1.06,8.73,1.38
205304,-1.32,1.39,15.31,1.10,8.73,1.16
205339,0.50,3.49,13.12,1.27,8.73,0.97
205374,4.10,1.86,12.78,1.44,8.73,1.04
205409,8.41,0.18,13.14,1.57,8.73,1.22
205444,10.84,-2.78,14.99,1.59,8.73,1.46
205479,11.79,-4.27,19.26,1.45,8.73,1.67
205514,12.69,-5.23,21.07,1.42,8.73,1.82
205549,12.18,-6.04,24.13,1.37,8.73,1.99
205584,10.81,-7.18,27.28,1.29,8.73,2.12
205619,9.07,-7.66,29.87,1.15,8.73,2.21
205654,6.01,-8.69,31.25,0.98,8.73,2.24
205689,3.20,-8.06,32.27,0.81,8.73,2.26
205724,0.45,-6.73,31.24,0.63,8.73,2.19
205759,-2.80,-6.78,30.28,0.51,8.73,2.14
205794,-3.83,-4.78,27.98,0.39,8.73,2.01
205829,-8.03,-4.30,27.23,0.35,8.73,1.89
205864,-6.96,-3.51,24.13,0.22,8.73,1.74
205899,-8.01,-0.61,21.69,0.19,8.73,1.58
205934,-3.90,-1.81,18.84,0.30,8.73,1.53
205969,0.40,-2.18,16.04,0.44,8.73,1.58
206004,4.00,-3.37,13.41,0.45,8.73,1.63
206040,7.28,-4.73,14.90,0.37,8.73,1.72
206075,8.14,-6.06,13.13,0.19,8.73,1.80
206109,9.03,-5.92,15.00,0.01,8.73,1.71
206144,10.61,-5.99,16.27,-0.10,8.73,1.52
206179,12.04,-4.12,20.14,-0.05,8.73,1.26
206214,11.88,-2.37,23.51,0.14,8.73,1.06
206249,11.54,-2.06,27.69,0.36,8.73,0.94
206284,9.52,-3.34,30.33,0.62,8.73,0.88
206319,7.02,-3.34,32.34,0.87,8.73,0.90
206354,4.22,-3.71,34.06,1.11,8.73,1.06
206389,0.08,-5.34,36.55,1.28,8.73,1.29
206424,-1.62,-4.94,31.27,1.41,8.73,1.47
206459,-4.45,-4.35,30.06,1.46,8.73,1.64
206494,-5.90,-3.08,28.10,1.68,8.73,1.78
206529,-6.91,-6.31,23.32,1.86,8.73,2.05
206564,-8.65,-7.92,20.46,1.83,8.73,2.39
206599,-8.26,-9.12,18.52,1.63,8.73,2.64
206634,-3.74,-6.97,16.52,1.30,8.73,2.59
206669,1.13,-4.36,15.49,1.07,8.73,2.31
206704,7.94,-1.91,15.74,1.03,8.73,1.99
206739,11.69,-1.57,17.17,1.08,8.73,1.79
206774,10.95,-3.07,17.90,1.06,8.73,1.82
206809,10.59,-6.22,20.38,0.92,8.73,1.87
206844,11.91,-5.78,23.65,0.65,8.73,1.84
206879,12.03,-6.05,26.35,0.47,8.73,1.72
206914,12.73,-4.13,30.47,0.43,8.73,1.58
206949,7.90,-4.39,33.78,0.54,8.73,1.55
206984,4.19,-4.60,34.88,0.61,8.73,1.61
207019,2.81,-4.95,35.80,0.53,8.73,1.71
207059,-1.72,-4.27,31.89,0.35,8.73,1.77
207094,-4.15,-4.07,30.97,0.25,8.73,1.73
207129,-5.36,-0.45,29.99,0.27,8.73,1.60
207164,-6.58,-0.69,26.84,0.49,8.73,1.47
207199,-6.87,-1.25,22.54,0.76,8.73,1.49
207234,-5.25,-0.70,19.63,1.04,8.73,1.67
207269,-3.12,-4.29,16.28,1.11,8.73,1.79
207304,0.30,-2.10,14.93,1.07,8.73,1.79
207339,1.82,-0.95,14.57,1.08,8.73,1.72
207374,4.51,-1.51,15.55,1.16,8.73,1.64
207409,7.74,-1.37,16.07,1.29,8.73,1.64
207444,10.76,-1.88,19.45,1.44,8.73,1.73
207479,12.77,-3.65,23.27,1.61,8.73,1.84
207514,12.99,-4.86,25.97,1.57,8.73,2.00
207549,11.50,-8.11,28.93,1.46,8.73,2.09
207584,9.36,-8.26,31.37,1.26,8.73,2.04
207619,7.00,-6.21,33.34,1.11,8.73,1.84
207654,3.86,-6.20,34.12,1.15,8.73,1.63
207689,0.85,-5.72,33.95,1.34,8.73,1.47
207724,-2.10,-5.15,32.93,1.53,8.73,1.45
207759,-4.90,-5.51,30.57,1.56,8.73,1.59
207794,-6.19,-7.44,26.79,1.34,8.73,1.79
207829,-7.11,-6.31,23.68,0.94,8.73,1.81
207864,-7.47,-1.82,21.84,0.72,8.73,1.71
207899,-4.34,-1.66,19.66,0.68,8.73,1.60
207934,-1.19,-0.32,18.10,0.70,8.73,1.48
207969,1.04,-2.04,16.44,0.73,8.73,1.52
208004,3.78,-2.84,15.82,0.71,8.73,1.64
208039,6.42,-5.47,15.84,0.55,8.73,1.82
208074,9.51,-7.63,18.78,0.27,8.73,1.90
208109,11.53,-6.82,22.43,0.04,8.73,1.76
208144,13.16,-4.22,26.06,0.02,8.73,1.53
208179,13.18,-2.76,30.04,0.25,8.73,1.40
208214,11.20,-3.44,32.61,0.57,8.73,1.40
208249,8.39,-3.60,35.42,0.76,8.73,1.46
208284,6.98,-5.49,36.57,0.88,8.73,1.58
208319,2.15,-5.40,34.93,0.97,8.73,1.66
208354,-0.80,-5.20,35.99,1.03,8.73,1.67
208389,-2.40,-2.38,33.76,1.24,8.73,1.65
208424,-5.90,-6.27,30.94,1.43,8.73,1.76
208459,-6.11,-5.14,27.71,1.38,8.73,1.94
208494,-6.58,-4.75,24.81,1.36,8.73,2.08
208529,-4.47,-4.97,22.33,1.26,8.73,2.14
208564,-3.22,-3.46,20.00,1.12,8.73,2.06
208599,0.24,-4.14,19.30,1.02,8.73,2.03
208634,5.01,-4.05,19.27,0.96,8.73,1.98
208669,9.49,-4.41,18.20,0.84,8.73,1.96
208704,11.12,-8.87,21.58,0.59,8.73,1.99
208739,11.92,-7.24,25.35,0.33,8.73,1.84
208773,13.51,-6.22,28.38,0.15,8.73,1.61
208807,11.65,-4.70,33.32,0.21,8.73,1.31
208842,9.95,-4.66,36.54,0.41,8.73,1.09
208877,6.28,-2.95,38.18,0.68,8.73,1.11
208912,4.02,-4.15,39.32,0.86,8.73,1.34
208947,-0.56,-4.81,39.56,0.88,8.73,1.56
208981,-2.11,-4.08,37.71,0.92,8.73,1.55
209016,-4.01,-2.28,31.98,0.94,8.73,1.54
209050,-5.80,-2.00,29.78,0.98,8.73,1.52
209090,-6.63,-0.25,27.07,1.08,8.73,1.51
209125,-5.24,-2.39,24.00,1.18,8.73,1.55
209160,-2.60,-0.97,21.71,1.19,8.73,1.52
209195,1.87,-1.68,19.21,1.29,8.73,1.61
209230,6.41,-2.85,19.44,1.31,8.73,1.77
209265,9.73,-5.00,20.34,1.29,8.73,1.91
209300,12.14,-4.68,22.36,1.21,8.73,2.00
209335,13.13,-7.05,24.60,1.06,8.73,2.11
209370,11.92,-7.76,27.75,0.86,8.73,2.09
209405,11.43,-6.68,31.03,0.79,8.73,2.06
209440,10.16,-6.26,33.40,0.75,8.73,2.10
209475,7.89,-7.18,36.33,0.71,8.73,2.16
209510,4.41,-7.43,37.43,0.56,8.73,2.27
209545,0.37,-8.62,36.79,0.38,8.73,2.34
209580,-2.57,-4.09,35.78,0.26,8.73,2.14
209615,-5.18,-4.80,33.43,0.21,8.73,1.89
209650,-5.93,-1.95,29.77,0.36,8.73,1.72
209685,-6.29,-1.24,27.18,0.52,8.73,1.59
209720,-5.71,-2.49,24.40,0.73,8.73,1.59
209755,-5.17,-1.34,22.29,0.84,8.73,1.61
209790,-0.66,-3.04,20.65,0.93,8.73,1.59
209825,4.24,-1.85,19.81,1.00,8.73,1.58
209860,8.14,-3.13,19.29,1.06,8.73,1.59
209895,11.63,-5.77,20.08,1.11,8.73,1.66
209930,13.26,-6.83,22.65,0.95,8.73,1.74
209965,12.06,-6.23,26.01,0.82,8.73,1.76
210000,11.97,-5.70,28.72,0.87,8.73,1.82
210035,11.87,-6.03,31.66,0.98,8.73,1.98
210070,8.34,-8.01,34.65,1.00,8.73,2.23
210105,5.79,-8.87,36.07,0.88,8.73,2.44
210140,2.51,-9.12,36.75,0.58,8.73,2.53
210175,-0.88,-7.75,35.24,0.38,8.73,2.45
210210,-3.71,-7.38,34.70,0.28,8.73,2.24
210245,-6.96,-3.05,33.23,0.35,8.73,2.02
210280,-7.48,-4.00,29.63,0.55,8.73,1.86
210315,-6.88,-3.78,25.43,0.68,8.73,1.82
210350,-5.16,-3.69,21.92,0.81,8.73,1.81
210385,-1.75,-2.90,19.34,0.87,8.73,1.81
210420,2.12,-3.93,17.98,0.94,8.73,1.76
210455,5.38,-2.04,17.60,1.02,8.73,1.69
210490,7.71,-3.00,17.72,1.15,8.73,1.71
210525,10.40,-3.40,20.32,1.24,8.73,1.78
210560,11.87,-3.88,24.36,1.40,8.73,1.89
210595,12.73,-5.51,28.19,1.46,8.73,2.10
210630,12.36,-9.28,31.07,1.45,8.73,2.29
210665,10.08,-9.16,33.91,1.27,8.73,2.42
210700,9.49,-10.18,36.51,1.05,8.73,2.47
210735,3.59,-10.55,38.10,0.86,8.73,2.40
210770,1.10,-8.29,38.23,0.79,8.73,2.27
210805,-2.72,-8.23,35.48,0.66,8.73,2.17
210840,-4.79,-7.49,33.51,0.59,8.73,2.00
210875,-5.72,-5.72,29.60,0.50,8.73,1.85
210909,-6.47,-4.41,26.45,0.42,8.73,1.63
210944,-5.84,0.54,23.62,0.40,8.73,1.34
210979,-2.55,2.50,22.03,0.55,8.73,1.03
211013,-0.73,2.97,19.50,0.90,8.73,0.78
211048,3.14,4.12,20.84,1.25,8.73,0.72
211083,6.96,-0.61,20.82,1.58,8.73,0.96
211122,11.33,-4.51,23.24,1.68,8.73,1.39
211157,12.29,-6.63,25.97,1.66,8.73,1.74
211192,12.80,-7.86,29.22,1.61,8.73,1.96
211227,12.13,-8.63,34.48,1.54,8.73,2.22
211262,9.49,-10.07,37.72,1.43,8.73,2.46
211297,6.92,-12.16,39.08,1.22,8.73,2.61
211331,3.08,-11.45,38.77,0.87,8.73,2.69
211367,-0.76,-9.81,39.72,0.58,8.73,2.60
211401,-3.91,-8.22,38.69,0.38,8.73,2.38
211436,-5.00,-6.91,34.15,0.31,8.73,2.12
211471,-6.06,-6.11,30.12,0.35,8.73,1.87
211506,-6.26,-2.03,27.63,0.42,8.73,1.62
211541,-3.50,-1.54,23.67,0.49,8.73,1.44
211576,-1.78,-1.09,20.64,0.72,8.73,1.24
211611,1.44,0.30,19.87,0.94,8.73,1.06
211646,4.42,0.88,21.26,1.41,8.73,0.90
211681,8.86,0.54,22.82,1.70,8.73,1.14
211716,11.57,-4.13,26.41,1.74,8.73,1.49
211751,13.36,-7.65,31.96,1.58,8.73,1.83
211786,13.36,-10.06,34.95,1.44,8.73,2.03
211821,10.56,-12.49,37.24,1.37,8.73,2.16
211856,8.29,-10.29,39.13,1.25,8.73,2.30
211891,4.30,-11.15,39.79,1.06,8.73,2.44
211926,0.18,-11.18,40.08,0.82,8.73,2.53
211961,-3.32,-10.52,38.30,0.46,8.73,2.48
211996,-6.05,-8.67,35.35,0.21,8.73,2.26
212031,-6.98,-6.71,32.14,-0.07,8.73,1.95
212066,-8.56,-0.93,30.27,-0.21,8.73,1.46
212101,-5.22,3.04,27.04,-0.08,8.73,1.11
212136,-2.81,2.27,23.99,0.31,8.73,0.85
212171,0.93,4.43,22.80,0.73,8.73,0.89
212206,6.72,-1.51,22.83,0.94,8.73,1.17
212241,11.77,-6.33,24.81,1.08,8.73,1.39
212276,13.85,-6.11,26.53,1.13,8.73,1.52
212311,14.53,-7.51,29.80,1.05,8.73,1.55
212346,12.73,-5.42,32.56,1.06,8.73,1.58
212381,11.81,-7.77,33.69,1.12,8.73,1.73
212416,8.93,-10.11,36.72,1.28,8.73,1.96
212451,5.42,-9.39,37.56,1.13,8.73,2.16
212486,2.48,-11.63,39.02,0.92,8.73,2.32
212521,-0.37,-8.21,36.10,0.75,8.73,2.27
212556,-4.02,-7.75,34.12,0.53,8.73,2.14
212591,-3.95,-5.46,30.05,0.43,8.73,1.96
212626,-4.72,-5.40,24.96,0.25,8.73,1.67
212661,-6.54,-0.61,23.37,0.15,8.73,1.38
212696,-6.70,2.18,21.70,0.37,8.73,1.16
212731,-1.69,2.57,20.04,0.60,8.73,0.99
212766,1.64,0.76,18.50,0.99,8.73,0.95
212801,6.23,2.72,19.17,1.26,8.73,1.10
212836,9.22,-4.07,19.24,1.49,8.73,1.32
212871,10.52,-2.48,21.67,1.61,8.73,1.49
212906,11.48,-8.31,25.50,1.55,8.73,1.74
212941,14.02,-8.69,29.43,1.56,8.73,1.88
212976,12.27,-5.20,35.23,1.43,8.73,2.14
213011,9.13,-11.45,35.81,1.31,8.73,2.40
213046,5.94,-11.82,37.28,1.15,8.73,2.51
213081,2.24,-8.84,39.13,0.81,8.73,2.52
213116,-0.01,-11.32,37.40,0.60,8.73,2.47
213156,-3.84,-10.08,34.54,0.47,8.73,2.26
213191,-5.40,-7.30,31.10,0.20,8.73,2.11
213226,-3.16,-2.89,25.85,-0.00,8.73,1.73
213261,-8.12,-0.82,23.77,-0.12,8.73,1.28
213296,-9.85,3.07,25.63,0.12,8.73,0.85
213331,-5.73,4.97,21.90,0.56,8.73,0.66
213366,-0.60,2.60,23.14,1.00,8.73,0.67
213401,9.87,2.41,23.93,1.34,8.73,0.92
213436,12.16,-1.08,22.75,1.60,8.73,1.19
213471,13.30,-6.63,28.72,1.64,8.73,1.41
213506,13.54,-7.19,30.71,1.46,8.73,1.70
213541,12.44,-10.40,33.68,1.44,8.73,1.83
213576,10.29,-6.94,36.94,1.42,8.73,2.00
213611,8.33,-10.84,40.43,1.23,8.73,2.10
213646,3.69,-11.14,39.36,1.06,8.73,2.28
213681,-0.21,-12.78,37.41,0.81,8.73,2.37
213716,-4.15,-9.82,37.11,0.45,8.73,2.42
213751,-5.81,-7.65,34.51,-0.01,8.73,2.27
213786,-7.14,-3.64,31.15,-0.22,8.73,1.91
213821,-8.13,-1.46,28.31,-0.10,8.73,1.52
213856,-7.35,1.38,25.32,0.33,8.73,1.36
213891,-2.31,-0.10,23.72,0.62,8.73,1.41
213926,2.86,-3.74,22.32,0.87,8.73,1.60
213961,9.08,-3.56,21.75,1.04,8.73,1.58
213996,12.46,0.85,21.07,1.19,8.73,1.51
214031,13.42,-2.38,23.67,1.49,8.73,1.51
214066,13.35,-5.75,26.05,1.79,8.73,1.72
214101,13.37,-6.73,27.98,1.84,8.73,1.98
214136,11.73,-9.29,31.91,1.68,8.73,2.35
214171,10.07,-12.71,34.24,1.50,8.73,2.58
214206,6.16,-11.45,38.02,1.23,8.73,2.59
214241,2.76,-9.52,39.78,0.89,8.73,2.61
214276,-0.73,-12.39,38.30,0.63,8.73,2.57
214311,-4.11,-9.24,35.90,0.36,8.73,2.42
214346,-5.19,-5.33,31.95,0.04,8.73,2.13
214381,-4.58,-4.45,27.57,-0.17,8.73,1.78
214416,-9.00,-1.76,26.61,-0.14,8.73,1.37
214451,-3.58,2.94,23.59,0.23,8.73,1.15
214486,-0.39,3.70,20.54,0.50,8.73,0.77
214521,1.90,3.86,21.35,0.90,8.73,0.52
214556,5.27,5.17,19.04,1.43,8.73,0.53
214591,9.80,1.19,21.24,1.97,8.73,0.73
214626,12.81,-3.44,25.11,2.21,8.73,1.10
214661,14.42,-5.74,28.22,2.17,8.73,1.51
214696,13.36,-7.04,32.81,2.05,8.73,1.80
214731,11.39,-9.98,36.42,1.76,8.73,1.91
214766,9.88,-10.49,37.86,1.61,8.73,1.94
214801,3.87,-9.55,36.25,1.45,8.73,1.91
214837,1.83,-11.54,35.97,1.42,8.73,1.87
214871,-1.19,-8.25,33.15,1.46,8.73,1.85
214906,-4.25,-7.13,29.49,1.26,8.73,1.89
214941,-5.95,-8.27,27.03,1.00,8.73,1.94
214976,-6.98,-7.10,23.31,0.58,8.73,1.83
215011,-3.76,-2.95,19.24,0.31,8.73,1.59
215046,-2.23,-0.06,17.03,0.32,8.73,1.38
215081,-1.56,-0.75,15.42,0.45,8.73,1.22
215116,0.40,-1.13,14.55,0.65,8.73,1.24
215151,4.92,-1.58,15.34,0.71,8.73,1.36
215191,9.17,-2.10,18.11,0.85,8.73,1.38
215226,11.63,-1.86,20.21,1.04,8.73,1.38
215261,13.72,-1.45,21.20,1.22,8.73,1.42
215296,13.44,-2.34,23.57,1.42,8.73,1.56
215331,11.76,-5.69,27.11,1.55,8.73,1.77
215367,10.32,-7.02,29.77,1.50,8.73,1.89
215401,7.53,-7.72,30.59,1.40,8.73,1.91
215436,5.98,-7.77,32.21,1.27,8.73,1.92
215471,2.28,-7.47,32.98,1.20,8.73,1.81
215506,-1.15,-7.52,32.08,1.31,8.73,1.74
215541,-2.33,-6.29,27.88,1.35,8.73,1.79
215576,-5.56,-6.56,24.72,1.35,8.72,1.86
215611,-8.77,-7.24,24.23,1.21,8.72,1.98
215646,-5.94,-6.27,21.13,1.12,8.73,2.07
215681,-3.44,-4.60,16.88,1.03,8.66,2.09
215716,-6.30,-5.83,13.60,0.95,8.61,2.14
215751,-3.51,-2.64,11.25,0.83,8.63,2.15
215786,1.63,-4.54,13.47,0.75,8.73,2.20
215821,2.86,-3.30,12.75,0.68,8.73,2.06
215856,7.61,-1.63,13.66,0.75,8.73,1.78
215891,10.60,-1.48,15.17,0.88,8.73,1.60
215926,10.92,-1.30,17.08,1.06,8.73,1.54
215961,12.30,-2.23,20.03,1.19,8.73,1.55
215996,12.84,-4.47,21.18,1.22,8.73,1.60
216031,12.00,-6.92,23.66,0.98,8.73,1.52
216066,10.45,-7.10,26.70,0.71,8.73,1.21
216102,7.57,-4.17,29.27,0.66,8.73,0.86
216136,4.45,-3.47,29.91,0.81,8.73,0.76
216171,2.22,-2.65,31.87,1.00,8.73,0.81
216206,-0.80,-3.99,30.78,1.15,8.73,0.95
216241,-3.52,-3.50,29.25,1.20,8.73,1.17
216276,-6.00,-4.17,28.62,1.19,8.73,1.33
216311,-6.45,-3.93,25.04,1.17,8.73,1.47
216346,-6.58,-3.76,21.42,1.08,8.73,1.54
216381,-6.37,-1.90,19.25,1.03,8.73,1.57
216416,-6.06,-2.15,16.41,0.99,8.73,1.57
216451,-3.08,-0.02,14.48,1.01,8.73,1.54
216486,-0.01,-0.75,13.92,1.05,8.73,1.52
216521,3.79,0.43,13.02,1.11,8.73,1.47
216555,6.51,-0.07,12.85,1.21,8.73,1.47
216590,9.51,-1.78,14.17,1.33,8.73,1.51
216625,11.05,-3.24,16.18,1.35,8.73,1.61
216660,12.16,-3.92,18.71,1.36,8.73,1.72
216695,12.63,-5.14,21.07,1.31,8.70,1.83
216730,11.71,-6.34,23.88,1.24,8.71,1.94
216765,10.74,-6.66,26.79,1.15,8.70,2.02
216800,8.71,-6.43,29.42,1.07,8.66,2.09
216835,5.10,-8.20,28.90,0.95,8.59,2.08
216870,2.92,-4.66,31.23,0.82,8.73,1.99
216905,-0.88,-6.25,30.75,0.79,8.73,1.89
216940,-3.11,-5.26,29.65,0.84,8.73,1.74
216975,-4.96,-4.70,27.36,0.94,8.73,1.69
217010,-6.66,-5.12,23.87,0.89,8.73,1.71
217045,-7.12,-3.72,21.15,0.78,8.73,1.67
217080,-6.11,-2.52,17.91,0.68,8.73,1.60
217115,-5.89,-0.98,15.56,0.66,8.73,1.51
217150,-3.33,-0.48,14.00,0.67,8.73,1.43
217185,0.02,-1.87,12.71,0.73,8.73,1.45
217225,4.28,-1.42,12.95,0.75,8.73,1.52
217260,7.85,-2.07,13.58,0.78,8.73,1.52
217295,10.08,-3.29,14.65,0.76,8.73,1.51
217330,11.21,-4.08,16.24,0.67,8.73,1.52
217365,11.91,-4.29,18.44,0.59,8.73,1.43
217400,12.04,-3.72,21.57,0.55,8.73,1.36
217435,11.38,-4.12,24.60,0.64,8.73,1.31
217470,10.04,-4.64,27.43,0.73,8.73,1.26
217505,7.73,-4.86,29.59,0.84,8.73,1.24
217540,5.00,-4.03,31.54,0.92,8.73,1.31
217575,1.85,-4.64,32.75,1.03,8.73,1.38
217610,-0.71,-4.70,31.58,1.13,8.73,1.45
217645,-3.27,-4.58,29.32,1.16,8.73,1.52
217680,-6.34,-4.09,27.80,1.18,8.73,1.61
217715,-6.05,-3.49,23.39,1.30,8.73,1.70
217750,-7.05,-4.56,19.85,1.32,8.73,1.81
217785,-6.50,-4.30,17.19,1.34,8.73,2.00
217820,-4.65,-5.60,14.94,1.23,8.73,2.12
217855,-3.48,-4.10,12.98,1.09,8.73,2.13
217890,0.45,-3.90,12.64,0.98,8.73,2.07
217925,4.74,-2.52,13.22,0.94,8.73,1.92
217960,7.86,-1.50,13.27,0.99,8.73,1.77
217995,8.77,-2.31,15.27,1.11,8.73,1.73
218030,11.31,-0.09,19.97,1.27,8.73,1.82
218065,11.97,-5.63,21.46,1.41,8.73,1.92
218100,11.21,-5.76,22.31,1.35,8.71,2.09
218135,9.52,-5.55,25.61,1.24,8.73,2.24
218170,8.73,-7.14,28.34,1.09,8.73,2.32
218205,7.24,-6.73,30.67,0.94,8.73,2.39
218240,3.86,-7.41,31.19,0.79,8.73,2.33
218275,0.98,-6.27,31.15,0.66,8.73,2.22
218310,-1.66,-4.11,31.08,0.74,8.73,1.97
218345,-4.39,-3.45,29.63,0.98,8.73,1.77
218381,-6.22,-2.74,26.41,1.25,8.73,1.73
218415,-6.80,-4.61,22.09,1.44,8.73,1.82
218450,-7.31,-5.02,18.62,1.42,8.73,1.91
218485,-6.02,-6.01,15.74,1.28,8.71,1.91
218520,-5.28,-3.18,13.50,1.05,8.73,1.77
218554,-1.60,-0.35,12.74,1.03,8.73,1.58
218589,0.00,-0.04,12.46,1.07,8.73,1.39
218624,3.37,1.05,12.77,1.23,8.73,1.29
218659,6.62,0.46,14.87,1.40,8.73,1.29
218694,10.22,-0.84,14.35,1.54,8.73,1.37
218729,11.41,-3.91,18.00,1.53,8.73,1.54
218764,12.78,-5.14,21.32,1.47,8.73,1.66
218799,12.93,-6.59,23.98,1.29,8.73,1.73
218834,11.61,-6.89,26.65,1.17,8.73,1.75
218869,9.00,-5.71,28.77,1.07,8.73,1.72
218904,6.80,-6.89,30.97,1.02,8.73,1.68
218939,3.44,-6.21,31.52,1.03,8.73,1.67
218974,0.38,-6.02,31.85,1.14,8.73,1.60
219009,-2.17,-5.35,29.76,1.26,8.73,1.56
219044,-4.04,-5.51,27.09,1.38,8.73,1.62
219079,-5.42,-6.44,23.99,1.39,8.73,1.73
219114,-7.15,-6.64,21.66,1.32,8.71,1.85
219149,-7.57,-5.20,19.07,1.16,8.73,1.91
219184,-5.55,-3.63,16.71,0.97,8.73,1.86
219219,-4.81,-2.60,13.55,0.83,8.73,1.74
219259,-1.29,-1.43,12.36,0.80,8.73,1.66
219294,1.23,-1.83,12.38,0.77,8.73,1.68
219329,4.28,-2.66,11.40,0.75,8.73,1.69
219364,6.80,-3.18,12.09,0.68,8.73,1.72
219399,9.59,-4.52,15.34,0.56,8.73,1.72
219434,11.34,-4.65,18.44,0.43,8.73,1.64
219469,12.49,-4.16,22.29,0.38,8.73,1.50
219504,12.71,-2.71,25.90,0.52,8.73,1.45
219539,11.79,-3.88,28.01,0.66,8.73,1.46
219574,8.95,-4.06,29.70,0.76,8.73,1.51
219609,5.67,-5.21,31.22,0.79,8.73,1.57
219644,2.87,-4.74,32.88,0.82,8.73,1.58
219679,-0.17,-4.05,31.74,0.91,8.73,1.47
219714,-3.02,-3.51,29.36,1.04,8.73,1.47
219749,-6.20,-3.60,28.20,1.19,8.73,1.48
219784,-5.90,-4.47,24.19,1.32,8.73,1.57
219819,-6.62,-3.69,20.93,1.33,8.73,1.66
219854,-5.85,-3.77,18.38,1.28,8.73,1.75
219889,-4.66,-3.44,15.36,1.13,8.73,1.75
219924,-2.79,-1.19,13.86,1.07,8.73,1.69
219959,-0.50,-1.12,13.11,1.05,8.73,1.64
219994,2.38,-0.47,13.65,1.08,8.73,1.59
220029,5.00,-1.67,13.09,1.11,8.73,1.64
220064,8.31,-2.17,15.11,1.16,8.73,1.69
220100,11.24,-3.73,17.90,1.11,8.73,1.74
220134,12.62,-3.02,19.72,1.11,8.73,1.77
220169,12.57,-4.05,22.20,1.06,8.73,1.82
220204,11.79,-5.06,25.17,1.03,8.73,1.92
220239,9.81,-6.39,27.51,0.97,8.73,2.01
220274,7.08,-6.99,29.65,0.90,8.73,2.05
220309,4.20,-6.36,29.93,0.78,8.69,2.02
220344,1.32,-6.13,30.79,0.71,8.69,1.91
220379,-1.38,-6.05,30.29,0.72,8.70,1.77
220414,-3.83,-4.70,29.37,0.74,8.73,1.64
220449,-6.51,-5.43,27.03,0.73,8.69,1.59
220484,-8.46,-3.91,25.86,0.64,8.73,1.55
220519,-6.83,-3.23,21.39,0.49,8.73,1.45
220553,-5.62,-0.50,17.64,0.25,8.73,1.22
220588,-4.09,2.98,15.40,0.30,8.73,1.00
220623,-2.03,3.09,13.89,0.46,8.73,0.87
220658,-0.57,0.44,12.26,0.65,8.73,1.03
220693,2.15,-2.10,12.16,0.67,8.73,1.34
220728,5.89,-4.83,12.06,0.58,8.73,1.56
220763,9.92,-5.88,13.43,0.41,8.73,1.66
220798,11.80,-6.17,16.36,0.32,8.73,1.57
220833,12.73,-5.15,18.35,0.21,8.73,1.41
220868,13.00,-4.47,20.49,0.26,8.73,1.25
220903,11.79,-4.33,23.26,0.37,8.73,1.11
220938,10.51,-3.26,26.31,0.49,8.73,0.99
220973,7.69,-3.39,29.22,0.66,8.73,0.97
221008,5.13,-3.27,30.26,0.81,8.73,1.02
221043,2.27,-4.71,31.35,1.01,8.73,1.13
221078,-0.48,-4.17,30.80,1.10,8.73,1.24
221113,-3.64,-4.12,29.15,1.13,8.73,1.34
221148,-5.90,-3.99,26.99,1.15,8.73,1.44
221183,-6.47,-3.75,24.11,1.15,8.73,1.51
221218,-7.48,-4.23,21.40,1.00,8.73,1.54
221253,-5.15,-2.46,17.87,0.96,8.73,1.54
221293,-4.81,-1.54,14.91,0.92,8.73,1.50
221328,-2.07,-0.67,12.95,0.94,8.73,1.42
221364,1.21,-1.24,12.66,0.98,8.73,1.43
221398,4.01,-1.65,12.36,1.00,8.73,1.47
221433,6.52,-1.05,12.14,1.04,8.73,1.52
221468,9.19,-2.85,13.67,1.06,8.73,1.57
221503,10.88,-2.46,15.90,1.04,8.70,1.62
221538,11.63,-3.81,18.93,1.03,8.65,1.65
221573,12.44,-5.59,20.79,0.98,8.61,1.68
221608,12.09,-5.54,23.83,0.91,8.62,1.67
221643,10.41,-6.41,26.19,0.86,8.63,1.72
221678,8.21,-5.65,28.55,0.82,8.62,1.67
